WSM
F3OF
DT3
FLAP1
t(s)	FLAP1(deg)
0.00000	10.00000
0.10000	9.97756
0.20000	9.91277
0.30000	9.80812
0.40000	9.66790
0.50000	9.49686
0.60000	9.30033
0.70000	9.08361
0.80000	8.85164
0.90000	8.60871
1.00000	8.35825
1.10000	8.10274
1.20000	7.84370
1.30000	7.58174
1.40000	7.31674
1.50000	7.04799
1.60000	6.77437
1.70000	6.49464
1.80000	6.20751
1.90000	5.91194
2.00000	5.60712
2.10000	5.29264
2.20000	4.96846
2.30000	4.63493
2.40000	4.29271
2.50000	3.94270
2.60000	3.58594
2.70000	3.22356
2.80000	2.85662
2.90000	2.48606
3.00000	2.11268
3.10000	1.73701
3.20000	1.35939
3.30000	0.97991
3.40000	0.59847
3.50000	0.21487
3.60000	-0.17115
3.70000	-0.55981
3.80000	-0.95124
3.90000	-1.34532
4.00000	-1.74171
4.10000	-2.13977
4.20000	-2.53852
4.30000	-2.93670
4.40000	-3.33275
4.50000	-3.72493
4.60000	-4.11134
4.70000	-4.49003
4.80000	-4.85910
4.90000	-5.21675
5.00000	-5.56142
5.10000	-5.89176
5.20000	-6.20675
5.30000	-6.50567
5.40000	-6.78812
5.50000	-7.05398
5.60000	-7.30339
5.70000	-7.53665
5.80000	-7.75420
5.90000	-7.95655
6.00000	-8.14417
6.10000	-8.31747
6.20000	-8.47674
6.30000	-8.62209
6.40000	-8.75347
6.50000	-8.87064
6.60000	-8.97320
6.70000	-9.06060
6.80000	-9.13219
6.90000	-9.18728
7.00000	-9.22518
7.10000	-9.24525
7.20000	-9.24694
7.30000	-9.22985
7.40000	-9.19372
7.50000	-9.13848
7.60000	-9.06423
7.70000	-8.97120
7.80000	-8.85980
7.90000	-8.73051
8.00000	-8.58392
8.10000	-8.42064
8.20000	-8.24131
8.30000	-8.04654
8.40000	-7.83691
8.50000	-7.61297
8.60000	-7.37521
8.70000	-7.12407
8.80000	-6.85996
8.90000	-6.58326
9.00000	-6.29435
9.10000	-5.99363
9.20000	-5.68152
9.30000	-5.35851
9.40000	-5.02510
9.50000	-4.68188
9.60000	-4.32948
9.70000	-3.96859
9.80000	-3.59992
9.90000	-3.22418
10.00000	-2.84211
10.10000	-2.45441
10.20000	-2.06176
10.30000	-1.66479
10.40000	-1.26409
10.50000	-0.86023
10.60000	-0.45371
10.70000	-0.04505
10.80000	0.36523
10.90000	0.77662
11.00000	1.18852
11.10000	1.60028
11.20000	2.01120
11.30000	2.42043
11.40000	2.82708
11.50000	3.23012
11.60000	3.62846
11.70000	4.02092
11.80000	4.40628
11.90000	4.78330
12.00000	5.15073
12.10000	5.50734
12.20000	5.85199
12.30000	6.18359
12.40000	6.50116
12.50000	6.80386
12.60000	7.09094
12.70000	7.36180
12.80000	7.61596
12.90000	7.85306
13.00000	8.07282
13.10000	8.27507
13.20000	8.45971
13.30000	8.62668
13.40000	8.77596
13.50000	8.90757
13.60000	9.02153
13.70000	9.11789
13.80000	9.19670
13.90000	9.25801
14.00000	9.30189
14.10000	9.32844
14.20000	9.33775
14.30000	9.32995
14.40000	9.30518
14.50000	9.26362
14.60000	9.20545
14.70000	9.13089
14.80000	9.04014
14.90000	8.93344
15.00000	8.81101
15.10000	8.67305
15.20000	8.51977
15.30000	8.35134
15.40000	8.16793
15.50000	7.96968
15.60000	7.75672
15.70000	7.52918
15.80000	7.28720
15.90000	7.03094
16.00000	6.76059
16.10000	6.47640
16.20000	6.17869
16.30000	5.86782
16.40000	5.54427
16.50000	5.20859
16.60000	4.86139
16.70000	4.50340
16.80000	4.13539
16.90000	3.75822
17.00000	3.37278
17.10000	2.97999
17.20000	2.58080
17.30000	2.17618
17.40000	1.76706
17.50000	1.35438
17.60000	0.93907
17.70000	0.52199
17.80000	0.10402
17.90000	-0.31401
18.00000	-0.73128
18.10000	-1.14702
18.20000	-1.56042
18.30000	-1.97071
18.40000	-2.37713
18.50000	-2.77889
18.60000	-3.17521
18.70000	-3.56532
18.80000	-3.94844
18.90000	-4.32379
19.00000	-4.69063
19.10000	-5.04820
19.20000	-5.39580
19.30000	-5.73275
19.40000	-6.05841
19.50000	-6.37216
19.60000	-6.67346
19.70000	-6.96177
19.80000	-7.23662
19.90000	-7.49757
20.00000	-7.74418
20.10000	-7.97606
20.20000	-8.19284
20.30000	-8.39413
20.40000	-8.57958
20.50000	-8.74883
20.60000	-8.90152
20.70000	-9.03732
20.80000	-9.15587
20.90000	-9.25686
21.00000	-9.34000
21.10000	-9.40501
21.20000	-9.45167
21.30000	-9.47980
21.40000	-9.48926
21.50000	-9.47999
21.60000	-9.45197
21.70000	-9.40525
21.80000	-9.33995
21.90000	-9.25623
22.00000	-9.15430
22.10000	-9.03444
22.20000	-8.89695
22.30000	-8.74215
22.40000	-8.57041
22.50000	-8.38211
22.60000	-8.17764
22.70000	-7.95742
22.80000	-7.72187
22.90000	-7.47141
23.00000	-7.20652
23.10000	-6.92764
23.20000	-6.63529
23.30000	-6.32997
23.40000	-6.01224
23.50000	-5.68268
23.60000	-5.34190
23.70000	-4.99055
23.80000	-4.62931
23.90000	-4.25890
24.00000	-3.88006
24.10000	-3.49356
24.20000	-3.10018
24.30000	-2.70072
24.40000	-2.29599
24.50000	-1.88680
24.60000	-1.47398
24.70000	-1.05833
24.80000	-0.64068
24.90000	-0.22182
25.00000	0.19744
25.10000	0.61628
25.20000	1.03392
25.30000	1.44956
25.40000	1.86238
25.50000	2.27161
25.60000	2.67645
25.70000	3.07612
25.80000	3.46982
25.90000	3.85680
26.00000	4.23631
26.10000	4.60760
26.20000	4.96998
26.30000	5.32276
26.40000	5.66529
26.50000	5.99694
26.60000	6.31713
26.70000	6.62528
26.80000	6.92088
26.90000	7.20342
27.00000	7.47240
27.10000	7.72738
27.20000	7.96789
27.30000	8.19351
27.40000	8.40381
27.50000	8.59836
27.60000	8.77675
27.70000	8.93859
27.80000	9.08347
27.90000	9.21104
28.00000	9.32092
28.10000	9.41280
28.20000	9.48638
28.30000	9.54140
28.40000	9.57765
28.50000	9.59496
28.60000	9.59323
28.70000	9.57239
28.80000	9.53246
28.90000	9.47348
29.00000	9.39558
29.10000	9.29890
29.20000	9.18368
29.30000	9.05018
29.40000	8.89869
29.50000	8.72958
29.60000	8.54321
29.70000	8.34001
29.80000	8.12043
29.90000	7.88494
30.00000	7.63406
30.10000	7.36831
30.20000	7.08826
30.30000	6.79450
30.40000	6.48764
30.50000	6.16833
30.60000	5.83721
30.70000	5.49498
30.80000	5.14233
30.90000	4.77998
31.00000	4.40865
31.10000	4.02908
31.20000	3.64202
31.30000	3.24819
31.40000	2.84835
31.50000	2.44323
31.60000	2.03356
31.70000	1.62007
31.80000	1.20350
31.90000	0.78458
32.00000	0.36402
32.10000	-0.05743
32.20000	-0.47903
32.30000	-0.90005
32.40000	-1.31971
32.50000	-1.73726
32.60000	-2.15191
32.70000	-2.56287
32.80000	-2.96934
32.90000	-3.37052
33.00000	-3.76558
33.10000	-4.15374
33.20000	-4.53418
33.30000	-4.90612
33.40000	-5.26878
33.50000	-5.62140
33.60000	-5.96327
33.70000	-6.29368
33.80000	-6.61196
33.90000	-6.91747
34.00000	-7.20961
34.10000	-7.48780
34.20000	-7.75149
34.30000	-8.00018
34.40000	-8.23337
34.50000	-8.45063
34.60000	-8.65151
34.70000	-8.83562
34.80000	-9.00260
34.90000	-9.15210
35.00000	-9.28381
35.10000	-9.39746
35.20000	-9.49280
35.30000	-9.56963
35.40000	-9.62778
35.50000	-9.66712
35.60000	-9.68757
35.70000	-9.68908
35.80000	-9.67165
35.90000	-9.63530
36.00000	-9.58013
36.10000	-9.50625
36.20000	-9.41382
36.30000	-9.30302
36.40000	-9.17408
36.50000	-9.02727
36.60000	-8.86288
36.70000	-8.68122
36.80000	-8.48266
36.90000	-8.26757
37.00000	-8.03638
37.10000	-7.78953
37.20000	-7.52750
37.30000	-7.25080
37.40000	-6.95997
37.50000	-6.65558
37.60000	-6.33824
37.70000	-6.00858
37.80000	-5.66726
37.90000	-5.31496
38.00000	-4.95239
38.10000	-4.58026
38.20000	-4.19933
38.30000	-3.81034
38.40000	-3.41404
38.50000	-3.01122
38.60000	-2.60265
38.70000	-2.18909
38.80000	-1.77134
38.90000	-1.35016
39.00000	-0.92635
39.10000	-0.50068
39.20000	-0.07394
39.30000	0.35308
39.40000	0.77960
39.50000	1.20482
39.60000	1.62794
39.70000	2.04817
39.80000	2.46471
39.90000	2.87676
40.00000	3.28353
40.10000	3.68423
40.20000	4.07806
40.30000	4.46427
40.40000	4.84208
40.50000	5.21076
40.60000	5.56956
40.70000	5.91780
40.80000	6.25476
40.90000	6.57980
41.00000	6.89226
41.10000	7.19151
41.20000	7.47697
41.30000	7.74806
41.40000	8.00423
41.50000	8.24496
41.60000	8.46975
41.70000	8.67814
41.80000	8.86968
41.90000	9.04397
42.00000	9.20065
42.10000	9.33938
42.20000	9.45986
42.30000	9.56184
42.40000	9.64511
42.50000	9.70950
42.60000	9.75488
42.70000	9.78118
42.80000	9.78836
42.90000	9.77642
43.00000	9.74542
43.10000	9.69544
43.20000	9.62660
43.30000	9.53907
43.40000	9.43303
43.50000	9.30871
43.60000	9.16635
43.70000	9.00625
43.80000	8.82869
43.90000	8.63403
44.00000	8.42261
44.10000	8.19483
44.20000	7.95111
44.30000	7.69190
44.40000	7.41767
44.50000	7.12894
44.60000	6.82625
44.70000	6.51016
44.80000	6.18130
44.90000	5.84028
45.00000	5.48777
45.10000	5.12445
45.20000	4.75106
45.30000	4.36830
45.40000	3.97695
45.50000	3.57778
45.60000	3.17157
45.70000	2.75911
45.80000	2.34123
45.90000	1.91874
46.00000	1.49247
46.10000	1.06324
46.20000	0.63189
46.30000	0.19927
46.40000	-0.23380
46.50000	-0.66646
46.60000	-1.09788
46.70000	-1.52723
46.80000	-1.95367
46.90000	-2.37637
47.00000	-2.79452
47.10000	-3.20731
47.20000	-3.61396
47.30000	-4.01368
47.40000	-4.40570
47.50000	-4.78930
47.60000	-5.16373
47.70000	-5.52830
47.80000	-5.88233
47.90000	-6.22515
48.00000	-6.55612
48.10000	-6.87462
48.20000	-7.18005
48.30000	-7.47183
48.40000	-7.74939
48.50000	-8.01220
48.60000	-8.25974
48.70000	-8.49151
48.80000	-8.70702
48.90000	-8.90584
49.00000	-9.08753
49.10000	-9.25168
49.20000	-9.39795
49.30000	-9.52599
49.40000	-9.63550
49.50000	-9.72622
49.60000	-9.79794
49.70000	-9.85048
49.80000	-9.88370
49.90000	-9.89751
50.00000	-9.89187
50.10000	-9.86678
50.20000	-9.82227
50.30000	-9.75845
50.40000	-9.67543
50.50000	-9.57340
50.60000	-9.45255
50.70000	-9.31316
50.80000	-9.15550
50.90000	-8.97990
51.00000	-8.78674
51.10000	-8.57641
51.20000	-8.34934
51.30000	-8.10601
51.40000	-7.84691
51.50000	-7.57258
51.60000	-7.28357
51.70000	-6.98047
51.80000	-6.66390
51.90000	-6.33449
52.00000	-5.99290
52.10000	-5.63980
52.20000	-5.27589
52.30000	-4.90187
52.40000	-4.51848
52.50000	-4.12645
52.60000	-3.72651
52.70000	-3.31942
52.80000	-2.90595
52.90000	-2.48687
53.00000	-2.06295
53.10000	-1.63499
53.20000	-1.20377
53.30000	-0.77010
53.40000	-0.33478
53.50000	0.10136
53.60000	0.53751
53.70000	0.97285
53.80000	1.40654
53.90000	1.83776
54.00000	2.26567
54.10000	2.68945
54.20000	3.10828
54.30000	3.52135
54.40000	3.92785
54.50000	4.32698
54.60000	4.71798
54.70000	5.10007
54.80000	5.47251
54.90000	5.83457
55.00000	6.18555
55.10000	6.52476
55.20000	6.85154
55.30000	7.16523
55.40000	7.46522
55.50000	7.75090
55.60000	8.02171
55.70000	8.27708
55.80000	8.51650
55.90000	8.73948
56.00000	8.94554
56.10000	9.13424
56.20000	9.30520
56.30000	9.45804
56.40000	9.59242
56.50000	9.70807
56.60000	9.80473
56.70000	9.88219
56.80000	9.94028
56.90000	9.97888
57.00000	9.99790
57.10000	9.99732
57.20000	9.97713
57.30000	9.93737
57.40000	9.87814
57.50000	9.79956
57.60000	9.70179
57.70000	9.58505
57.80000	9.44956
57.90000	9.29561
58.00000	9.12352
58.10000	8.93364
58.20000	8.72634
58.30000	8.50206
58.40000	8.26124
58.50000	8.00438
58.60000	7.73198
58.70000	7.44461
58.80000	7.14282
58.90000	6.82723
59.00000	6.49847
59.10000	6.15717
59.20000	5.80402
59.30000	5.43971
59.40000	5.06492
59.50000	4.68040
59.60000	4.28687
59.70000	3.88508
59.80000	3.47579
59.90000	3.05975
60.00000	2.63775
60.10000	2.21058
60.20000	1.77902
60.30000	1.34387
60.40000	0.90595
60.50000	0.46606
60.60000	0.02504
60.70000	-0.41629
60.80000	-0.85710
60.90000	-1.29655
61.00000	-1.73380
61.10000	-2.16801
61.20000	-2.59834
61.30000	-3.02396
61.40000	-3.44403
61.50000	-3.85774
61.60000	-4.26425
61.70000	-4.66278
61.80000	-5.05253
61.90000	-5.43271
62.00000	-5.80258
62.10000	-6.16138
62.20000	-6.50839
62.30000	-6.84291
62.40000	-7.16426
62.50000	-7.47179
62.60000	-7.76486
62.70000	-8.04287
62.80000	-8.30525
62.90000	-8.55146
63.00000	-8.78099
63.10000	-8.99337
63.20000	-9.18817
63.30000	-9.36498
63.40000	-9.52346
63.50000	-9.66327
63.60000	-9.78415
63.70000	-9.88587
63.80000	-9.96823
63.90000	-10.03108
64.00000	-10.07432
64.10000	-10.09787
64.20000	-10.10172
64.30000	-10.08587
64.40000	-10.05038
64.50000	-9.99533
64.60000	-9.92084
64.70000	-9.82708
64.80000	-9.71423
64.90000	-9.58254
65.00000	-9.43226
65.10000	-9.26369
65.20000	-9.07715
65.30000	-8.87302
65.40000	-8.65169
65.50000	-8.41359
65.60000	-8.15918
65.70000	-7.88896
65.80000	-7.60345
65.90000	-7.30319
66.00000	-6.98878
66.10000	-6.66083
66.20000	-6.31995
66.30000	-5.96683
66.40000	-5.60212
66.50000	-5.22653
66.60000	-4.84079
66.70000	-4.44563
66.80000	-4.04179
66.90000	-3.63006
67.00000	-3.21121
67.10000	-2.78604
67.20000	-2.35535
67.30000	-1.91996
67.40000	-1.48071
67.50000	-1.03842
67.60000	-0.59395
67.70000	-0.14814
67.80000	0.29816
67.90000	0.74407
68.00000	1.18876
68.10000	1.63135
68.20000	2.07099
68.30000	2.50684
68.40000	2.93804
68.50000	3.36377
68.60000	3.78320
68.70000	4.19552
68.80000	4.59992
68.90000	4.99562
69.00000	5.38185
69.10000	5.75786
69.20000	6.12291
69.30000	6.47627
69.40000	6.81726
69.50000	7.14520
69.60000	7.45942
69.70000	7.75930
69.80000	8.04424
69.90000	8.31364
70.00000	8.56696
70.10000	8.80367
70.20000	9.02329
70.30000	9.22536
70.40000	9.40946
70.50000	9.57520
70.60000	9.72225
70.70000	9.85030
70.80000	9.95909
70.90000	10.04840
71.00000	10.11804
71.10000	10.16789
71.20000	10.19785
71.30000	10.20787
71.40000	10.19793
71.50000	10.16807
71.60000	10.11835
71.70000	10.04889
71.80000	9.95983
71.90000	9.85135
72.00000	9.72368
72.10000	9.57708
72.20000	9.41184
72.30000	9.22830
72.40000	9.02681
72.50000	8.80777
72.60000	8.57162
72.70000	8.31883
72.80000	8.04988
72.90000	7.76530
73.00000	7.46566
73.10000	7.15152
73.20000	6.82350
73.30000	6.48223
73.40000	6.12838
73.50000	5.76261
73.60000	5.38564
73.70000	4.99817
73.80000	4.60096
73.90000	4.19476
74.00000	3.78034
74.10000	3.35849
74.20000	2.93002
74.30000	2.49575
74.40000	2.05650
74.50000	1.61311
74.60000	1.16645
74.70000	0.71735
74.80000	0.26670
74.90000	-0.18464
75.00000	-0.63580
75.10000	-1.08590
75.20000	-1.53408
75.30000	-1.97946
75.40000	-2.42119
75.50000	-2.85842
75.60000	-3.29028
75.70000	-3.71595
75.80000	-4.13462
75.90000	-4.54545
76.00000	-4.94768
76.10000	-5.34050
76.20000	-5.72317
76.30000	-6.09494
76.40000	-6.45508
76.50000	-6.80288
76.60000	-7.13767
76.70000	-7.45878
76.80000	-7.76556
76.90000	-8.05741
77.00000	-8.33374
77.10000	-8.59398
77.20000	-8.83761
77.30000	-9.06412
77.40000	-9.27306
77.50000	-9.46398
77.60000	-9.63649
77.70000	-9.79023
77.80000	-9.92489
77.90000	-10.04017
78.00000	-10.13584
78.10000	-10.21170
78.20000	-10.26758
78.30000	-10.30336
78.40000	-10.31897
78.50000	-10.31437
78.60000	-10.28957
78.70000	-10.24461
78.80000	-10.17957
78.90000	-10.09460
79.00000	-9.98986
79.10000	-9.86555
79.20000	-9.72194
79.30000	-9.55932
79.40000	-9.37801
79.50000	-9.17839
79.60000	-8.96087
79.70000	-8.72588
79.80000	-8.47391
79.90000	-8.20547
80.00000	-7.92111
80.10000	-7.62139
80.20000	-7.30692
80.30000	-6.97832
80.40000	-6.63626
80.50000	-6.28139
80.60000	-5.91442
80.70000	-5.53606
80.80000	-5.14703
80.90000	-4.74809
81.00000	-4.34000
81.10000	-3.92353
81.20000	-3.49947
81.30000	-3.06862
81.40000	-2.63179
81.50000	-2.18981
81.60000	-1.74350
81.70000	-1.29372
81.80000	-0.84130
81.90000	-0.38710
82.00000	0.06802
82.10000	0.52320
82.20000	0.97756
82.30000	1.43026
82.40000	1.88042
82.50000	2.32719
82.60000	2.76970
82.70000	3.20712
82.80000	3.63858
82.90000	4.06327
83.00000	4.48036
83.10000	4.88903
83.20000	5.28850
83.30000	5.67797
83.40000	6.05668
83.50000	6.42388
83.60000	6.77884
83.70000	7.12085
83.80000	7.44923
83.90000	7.76330
84.00000	8.06243
84.10000	8.34602
84.20000	8.61348
84.30000	8.86426
84.40000	9.09785
84.50000	9.31377
84.60000	9.51158
84.70000	9.69086
84.80000	9.85124
84.90000	9.99240
85.00000	10.11405
85.10000	10.21593
85.20000	10.29784
85.30000	10.35961
85.40000	10.40111
85.50000	10.42226
85.60000	10.42302
85.70000	10.40337
85.80000	10.36337
85.90000	10.30308
86.00000	10.22263
86.10000	10.12219
86.20000	10.00194
86.30000	9.86214
86.40000	9.70306
86.50000	9.52502
86.60000	9.32839
86.70000	9.11355
86.80000	8.88094
86.90000	8.63102
87.00000	8.36429
87.10000	8.08129
87.20000	7.78258
87.30000	7.46875
87.40000	7.14042
87.50000	6.79823
87.60000	6.44285
87.70000	6.07498
87.80000	5.69534
87.90000	5.30464
88.00000	4.90365
88.10000	4.49314
88.20000	4.07389
88.30000	3.64671
88.40000	3.21241
88.50000	2.77181
88.60000	2.32576
88.70000	1.87512
88.80000	1.42073
88.90000	0.96346
89.00000	0.50418
89.10000	0.04378
89.20000	-0.41688
89.30000	-0.87691
89.40000	-1.33544
89.50000	-1.79159
89.60000	-2.24449
89.70000	-2.69326
89.80000	-3.13706
89.90000	-3.57502
90.00000	-4.00631
90.10000	-4.43008
90.20000	-4.84551
90.30000	-5.25181
90.40000	-5.64816
90.50000	-6.03379
90.60000	-6.40794
90.70000	-6.76986
90.80000	-7.11882
90.90000	-7.45414
91.00000	-7.77512
91.10000	-8.08112
91.20000	-8.37151
91.30000	-8.64570
91.40000	-8.90313
91.50000	-9.14328
91.60000	-9.36564
91.70000	-9.56976
91.80000	-9.75523
91.90000	-9.92167
92.00000	-10.06873
92.10000	-10.19612
92.20000	-10.30359
92.30000	-10.39090
92.40000	-10.45790
92.50000	-10.50444
92.60000	-10.53043
92.70000	-10.53582
92.80000	-10.52061
92.90000	-10.48482
93.00000	-10.42853
93.10000	-10.35185
93.20000	-10.25493
93.30000	-10.13797
93.40000	-10.00121
93.50000	-9.84492
93.60000	-9.66941
93.70000	-9.47504
93.80000	-9.26219
93.90000	-9.03129
94.00000	-8.78280
94.10000	-8.51722
94.20000	-8.23507
94.30000	-7.93691
94.40000	-7.62333
94.50000	-7.29495
94.60000	-6.95241
94.70000	-6.59638
94.80000	-6.22756
94.90000	-5.84665
95.00000	-5.45441
95.10000	-5.05158
95.20000	-4.63895
95.30000	-4.21731
95.40000	-3.78747
95.50000	-3.35026
95.60000	-2.90652
95.70000	-2.45709
95.80000	-2.00284
95.90000	-1.54465
96.00000	-1.08338
96.10000	-0.61992
96.20000	-0.15516
96.30000	0.31002
96.40000	0.77473
96.50000	1.23809
96.60000	1.69920
96.70000	2.15720
96.80000	2.61120
96.90000	3.06035
97.00000	3.50379
97.10000	3.94067
97.20000	4.37015
97.30000	4.79142
97.40000	5.20365
97.50000	5.60605
97.60000	5.99785
97.70000	6.37827
97.80000	6.74658
97.90000	7.10203
98.00000	7.44394
98.10000	7.77161
98.20000	8.08438
98.30000	8.38163
98.40000	8.66276
98.50000	8.92718
98.60000	9.17435
98.70000	9.40377
98.80000	9.61497
98.90000	9.80749
99.00000	9.98094
99.10000	10.13496
99.20000	10.26922
99.30000	10.38342
99.40000	10.47734
99.50000	10.55076
99.60000	10.60353
99.70000	10.63553
99.80000	10.64667
99.90000	10.63693
100.00000	10.60632
100.10000	10.55490
100.20000	10.48276
100.30000	10.39006
100.40000	10.27696
100.50000	10.14371
100.60000	9.99057
100.70000	9.81786
100.80000	9.62593
100.90000	9.41517
101.00000	9.18601
101.10000	8.93891
101.20000	8.67438
101.30000	8.39294
101.40000	8.09517
101.50000	7.78165
101.60000	7.45301
101.70000	7.10989
101.80000	6.75298
101.90000	6.38297
102.00000	6.00058
102.10000	5.60655
102.20000	5.20164
102.30000	4.78664
102.40000	4.36235
102.50000	3.92957
102.60000	3.48915
102.70000	3.04191
102.80000	2.58872
102.90000	2.13045
103.00000	1.66796
103.10000	1.20215
103.20000	0.73389
103.30000	0.26409
103.40000	-0.20637
103.50000	-0.67658
103.60000	-1.14565
103.70000	-1.61268
103.80000	-2.07679
103.90000	-2.53708
104.00000	-2.99268
104.10000	-3.44272
104.20000	-3.88632
104.30000	-4.32264
104.40000	-4.75084
104.50000	-5.17007
104.60000	-5.57953
104.70000	-5.97842
104.80000	-6.36595
104.90000	-6.74135
105.00000	-7.10388
105.10000	-7.45282
105.20000	-7.78747
105.30000	-8.10715
105.40000	-8.41121
105.50000	-8.69905
105.60000	-8.97006
105.70000	-9.22371
105.80000	-9.45946
105.90000	-9.67684
106.00000	-9.87539
106.10000	-10.05470
106.20000	-10.21440
106.30000	-10.35416
106.40000	-10.47368
106.50000	-10.57271
106.60000	-10.65105
106.70000	-10.70852
106.80000	-10.74500
106.90000	-10.76040
107.00000	-10.75470
107.10000	-10.72790
107.20000	-10.68004
107.30000	-10.61123
107.40000	-10.52159
107.50000	-10.41133
107.60000	-10.28066
107.70000	-10.12985
107.80000	-9.95921
107.90000	-9.76909
108.00000	-9.55989
108.10000	-9.33203
108.20000	-9.08599
108.30000	-8.82225
108.40000	-8.54136
108.50000	-8.24389
108.60000	-7.93043
108.70000	-7.60160
108.80000	-7.25806
108.90000	-6.90049
109.00000	-6.52958
109.10000	-6.14607
109.20000	-5.75070
109.30000	-5.34423
109.40000	-4.92745
109.50000	-4.50115
109.60000	-4.06616
109.70000	-3.62330
109.80000	-3.17341
109.90000	-2.71735
110.00000	-2.25599
110.10000	-1.79018
110.20000	-1.32082
110.30000	-0.84880
110.40000	-0.37499
110.50000	0.09970
110.60000	0.57439
110.70000	1.04817
110.80000	1.52014
110.90000	1.98942
111.00000	2.45511
111.10000	2.91633
111.20000	3.37219
111.30000	3.82182
111.40000	4.26435
111.50000	4.69892
111.60000	5.12469
111.70000	5.54081
111.80000	5.94648
111.90000	6.34089
112.00000	6.72325
112.10000	7.09279
112.20000	7.44878
112.30000	7.79049
112.40000	8.11722
112.50000	8.42832
112.60000	8.72314
112.70000	9.00109
112.80000	9.26159
112.90000	9.50410
113.00000	9.72813
113.10000	9.93321
113.20000	10.11892
113.30000	10.28487
113.40000	10.43072
113.50000	10.55616
113.60000	10.66094
113.70000	10.74484
113.80000	10.80767
113.90000	10.84932
114.00000	10.86968
114.10000	10.86872
114.20000	10.84644
114.30000	10.80288
114.40000	10.73813
114.50000	10.65233
114.60000	10.54565
114.70000	10.41831
114.80000	10.27057
114.90000	10.10274
115.00000	9.91515
115.10000	9.70820
115.20000	9.48231
115.30000	9.23792
115.40000	8.97554
115.50000	8.69568
115.60000	8.39891
115.70000	8.08581
115.80000	7.75701
115.90000	7.41315
116.00000	7.05491
116.10000	6.68297
116.20000	6.29807
116.30000	5.90096
116.40000	5.49239
116.50000	5.07316
116.60000	4.64407
116.70000	4.20594
116.80000	3.75963
116.90000	3.30597
117.00000	2.84584
117.10000	2.38011
117.20000	1.90967
117.30000	1.43542
117.40000	0.95826
117.50000	0.47910
117.60000	-0.00116
117.70000	-0.48160
117.80000	-0.96131
117.90000	-1.43937
118.00000	-1.91487
118.10000	-2.38691
118.20000	-2.85458
118.30000	-3.31699
118.40000	-3.77324
118.50000	-4.22246
118.60000	-4.66376
118.70000	-5.09630
118.80000	-5.51922
118.90000	-5.93169
119.00000	-6.33290
119.10000	-6.72204
119.20000	-7.09834
119.30000	-7.46104
119.40000	-7.80942
119.50000	-8.14277
119.60000	-8.46041
119.70000	-8.76169
119.80000	-9.04601
119.90000	-9.31277
120.00000	-9.56142
120.10000	-9.79147
120.20000	-10.00243
120.30000	-10.19386
120.40000	-10.36538
120.50000	-10.51662
120.60000	-10.64727
120.70000	-10.75707
120.80000	-10.84579
120.90000	-10.91323
121.00000	-10.95926
121.10000	-10.98380
121.20000	-10.98678
121.30000	-10.96820
121.40000	-10.92811
121.50000	-10.86658
121.60000	-10.78375
121.70000	-10.67980
121.80000	-10.55494
121.90000	-10.40943
122.00000	-10.24357
122.10000	-10.05770
122.20000	-9.85221
122.30000	-9.62752
122.40000	-9.38407
122.50000	-9.12237
122.60000	-8.84293
122.70000	-8.54631
122.80000	-8.23311
122.90000	-7.90395
123.00000	-7.55946
123.10000	-7.20033
123.20000	-6.82725
123.30000	-6.44095
123.40000	-6.04219
123.50000	-5.63172
123.60000	-5.21035
123.70000	-4.77889
123.80000	-4.33815
123.90000	-3.88899
124.00000	-3.43227
124.10000	-2.96885
124.20000	-2.49962
124.30000	-2.02547
124.40000	-1.54731
124.50000	-1.06604
124.60000	-0.58258
124.70000	-0.09784
124.80000	0.38726
124.90000	0.87180
125.00000	1.35486
125.10000	1.83552
125.20000	2.31287
125.30000	2.78599
125.40000	3.25398
125.50000	3.71594
125.60000	4.17099
125.70000	4.61823
125.80000	5.05681
125.90000	5.48587
126.00000	5.90456
126.10000	6.31207
126.20000	6.70758
126.30000	7.09032
126.40000	7.45951
126.50000	7.81442
126.60000	8.15433
126.70000	8.47856
126.80000	8.78645
126.90000	9.07737
127.00000	9.35072
127.10000	9.60595
127.20000	9.84252
127.30000	10.05995
127.40000	10.25779
127.50000	10.43561
127.60000	10.59305
127.70000	10.72977
127.80000	10.84548
127.90000	10.93994
128.00000	11.01294
128.10000	11.06432
128.20000	11.09397
128.30000	11.10183
128.40000	11.08788
128.50000	11.05213
128.60000	10.99467
128.70000	10.91560
128.80000	10.81511
128.90000	10.69338
129.00000	10.55068
129.10000	10.38731
129.20000	10.20360
129.30000	9.99992
129.40000	9.77671
129.50000	9.53441
129.60000	9.27352
129.70000	8.99457
129.80000	8.69812
129.90000	8.38475
130.00000	8.05510
130.10000	7.70982
130.20000	7.34958
130.30000	6.97509
130.40000	6.58709
130.50000	6.18633
130.60000	5.77358
130.70000	5.34965
130.80000	4.91534
130.90000	4.47150
131.00000	4.01896
131.10000	3.55860
131.20000	3.09129
131.30000	2.61792
131.40000	2.13938
131.50000	1.65659
131.60000	1.17046
131.70000	0.68191
131.80000	0.19186
131.90000	-0.29875
132.00000	-0.78900
132.10000	-1.27796
132.20000	-1.76468
132.30000	-2.24826
132.40000	-2.72775
132.50000	-3.20224
132.60000	-3.67082
132.70000	-4.13257
132.80000	-4.58661
132.90000	-5.03203
133.00000	-5.46798
133.10000	-5.89358
133.20000	-6.30800
133.30000	-6.71042
133.40000	-7.10002
133.50000	-7.47604
133.60000	-7.83770
133.70000	-8.18430
133.80000	-8.51511
133.90000	-8.82947
134.00000	-9.12673
134.10000	-9.40629
134.20000	-9.66758
134.30000	-9.91005
134.40000	-10.13321
134.50000	-10.33659
134.60000	-10.51977
134.70000	-10.68237
134.80000	-10.82405
134.90000	-10.94451
135.00000	-11.04350
135.10000	-11.12082
135.20000	-11.17630
135.30000	-11.20982
135.40000	-11.22132
135.50000	-11.21077
135.60000	-11.17819
135.70000	-11.12366
135.80000	-11.04729
135.90000	-10.94924
136.00000	-10.82973
136.10000	-10.68899
136.20000	-10.52732
136.30000	-10.34506
136.40000	-10.14259
136.50000	-9.92032
136.60000	-9.67870
136.70000	-9.41823
136.80000	-9.13944
136.90000	-8.84287
137.00000	-8.52914
137.10000	-8.19886
137.20000	-7.85268
137.30000	-7.49130
137.40000	-7.11541
137.50000	-6.72577
137.60000	-6.32311
137.70000	-5.90824
137.80000	-5.48194
137.90000	-5.04505
138.00000	-4.59839
138.10000	-4.14284
138.20000	-3.67925
138.30000	-3.20850
138.40000	-2.73150
138.50000	-2.24915
138.60000	-1.76236
138.70000	-1.27205
138.80000	-0.77914
138.90000	-0.28457
139.00000	0.21073
139.10000	0.70583
139.20000	1.19979
139.30000	1.69167
139.40000	2.18053
139.50000	2.66545
139.60000	3.14550
139.70000	3.61976
139.80000	4.08730
139.90000	4.54723
140.00000	4.99865
140.10000	5.44068
140.20000	5.87244
140.30000	6.29309
140.40000	6.70179
140.50000	7.09773
140.60000	7.48012
140.70000	7.84818
140.80000	8.20118
140.90000	8.53839
141.00000	8.85914
141.10000	9.16276
141.20000	9.44865
141.30000	9.71620
141.40000	9.96486
141.50000	10.19413
141.60000	10.40353
141.70000	10.59261
141.80000	10.76098
141.90000	10.90830
142.00000	11.03424
142.10000	11.13856
142.20000	11.22101
142.30000	11.28144
142.40000	11.31970
142.50000	11.33573
142.60000	11.32949
142.70000	11.30098
142.80000	11.25027
142.90000	11.17746
143.00000	11.08271
143.10000	10.96620
143.20000	10.82819
143.30000	10.66896
143.40000	10.48883
143.50000	10.28817
143.60000	10.06739
143.70000	9.82695
143.80000	9.56731
143.90000	9.28902
144.00000	8.99261
144.10000	8.67869
144.20000	8.34788
144.30000	8.00083
144.40000	7.63823
144.50000	7.26079
144.60000	6.86924
144.70000	6.46436
144.80000	6.04692
144.90000	5.61775
145.00000	5.17766
145.10000	4.72752
145.20000	4.26818
145.30000	3.80052
145.40000	3.32545
145.50000	2.84387
145.60000	2.35669
145.70000	1.86485
145.80000	1.36928
145.90000	0.87092
146.00000	0.37072
146.10000	-0.13038
146.20000	-0.63141
146.30000	-1.13142
146.40000	-1.62947
146.50000	-2.12461
146.60000	-2.61588
146.70000	-3.10234
146.80000	-3.58305
146.90000	-4.05710
147.00000	-4.52355
147.10000	-4.98151
147.20000	-5.43008
147.30000	-5.86837
147.40000	-6.29554
147.50000	-6.71073
147.60000	-7.11311
147.70000	-7.50190
147.80000	-7.87631
147.90000	-8.23558
148.00000	-8.57901
148.10000	-8.90588
148.20000	-9.21553
148.30000	-9.50734
148.40000	-9.78070
148.50000	-10.03505
148.60000	-10.26986
148.70000	-10.48464
148.80000	-10.67896
148.90000	-10.85239
149.00000	-11.00458
149.10000	-11.13519
149.20000	-11.24397
149.30000	-11.33068
149.40000	-11.39512
149.50000	-11.43717
149.60000	-11.45674
149.70000	-11.45378
149.80000	-11.42831
149.90000	-11.38036
150.00000	-11.31006
150.10000	-11.21753
150.20000	-11.10299
150.30000	-10.96666
150.40000	-10.80883
150.50000	-10.62982
150.60000	-10.43001
150.70000	-10.20981
150.80000	-9.96967
150.90000	-9.71007
151.00000	-9.43153
151.10000	-9.13463
151.20000	-8.81996
151.30000	-8.48814
151.40000	-8.13984
151.50000	-7.77574
151.60000	-7.39656
151.70000	-7.00306
151.80000	-6.59599
151.90000	-6.17616
152.00000	-5.74437
152.10000	-5.30147
152.20000	-4.84831
152.30000	-4.38576
152.40000	-3.91471
152.50000	-3.43606
152.60000	-2.95071
152.70000	-2.45960
152.80000	-1.96366
152.90000	-1.46383
153.00000	-0.96104
153.10000	-0.45626
153.20000	0.04956
153.30000	0.55546
153.40000	1.06049
153.50000	1.56368
153.60000	2.06408
153.70000	2.56074
153.80000	3.05270
153.90000	3.53903
154.00000	4.01878
154.10000	4.49104
154.20000	4.95488
154.30000	5.40941
154.40000	5.85373
154.50000	6.28698
154.60000	6.70831
154.70000	7.11688
154.80000	7.51187
154.90000	7.89251
155.00000	8.25802
155.10000	8.60768
155.20000	8.94077
155.30000	9.25661
155.40000	9.55456
155.50000	9.83401
155.60000	10.09438
155.70000	10.33513
155.80000	10.55575
155.90000	10.75577
156.00000	10.93479
156.10000	11.09242
156.20000	11.22831
156.30000	11.34219
156.40000	11.43380
156.50000	11.50294
156.60000	11.54947
156.70000	11.57328
156.80000	11.57432
156.90000	11.55258
157.00000	11.50810
157.10000	11.44097
157.20000	11.35134
157.30000	11.23938
157.40000	11.10532
157.50000	10.94945
157.60000	10.77209
157.70000	10.57360
157.80000	10.35439
157.90000	10.11491
158.00000	9.85564
158.10000	9.57712
158.20000	9.27990
158.30000	8.96459
158.40000	8.63181
158.50000	8.28224
158.60000	7.91657
158.70000	7.53551
158.80000	7.13984
158.90000	6.73031
159.00000	6.30774
159.10000	5.87294
159.20000	5.42676
159.30000	4.97006
159.40000	4.50372
159.50000	4.02864
159.60000	3.54571
159.70000	3.05587
159.80000	2.56004
159.90000	2.05916
160.00000	1.55419
160.10000	1.04607
160.20000	0.53577
160.30000	0.02426
160.40000	-0.48749
160.50000	-0.99852
160.60000	-1.50785
160.70000	-2.01451
160.80000	-2.51754
160.90000	-3.01596
161.00000	-3.50883
161.10000	-3.99518
161.20000	-4.47408
161.30000	-4.94460
161.40000	-5.40582
161.50000	-5.85683
161.60000	-6.29675
161.70000	-6.72470
161.80000	-7.13984
161.90000	-7.54134
162.00000	-7.92839
162.10000	-8.30022
162.20000	-8.65607
162.30000	-8.99522
162.40000	-9.31698
162.50000	-9.62068
162.60000	-9.90571
162.70000	-10.17148
162.80000	-10.41743
162.90000	-10.64304
163.00000	-10.84786
163.10000	-11.03144
163.20000	-11.19340
163.30000	-11.33340
163.40000	-11.45115
163.50000	-11.54639
163.60000	-11.61893
163.70000	-11.66861
163.80000	-11.69534
163.90000	-11.69904
164.00000	-11.67972
164.10000	-11.63742
164.20000	-11.57224
164.30000	-11.48430
164.40000	-11.37380
164.50000	-11.24096
164.60000	-11.08607
164.70000	-10.90945
164.80000	-10.71146
164.90000	-10.49252
165.00000	-10.25306
165.10000	-9.99359
165.20000	-9.71463
165.30000	-9.41673
165.40000	-9.10052
165.50000	-8.76661
165.60000	-8.41567
165.70000	-8.04841
165.80000	-7.66555
165.90000	-7.26785
166.00000	-6.85608
166.10000	-6.43105
166.20000	-5.99358
166.30000	-5.54453
166.40000	-5.08476
166.50000	-4.61515
166.60000	-4.13660
166.70000	-3.65003
166.80000	-3.15636
166.90000	-2.65652
167.00000	-2.15147
167.10000	-1.64215
167.20000	-1.12953
167.30000	-0.61459
167.40000	-0.09828
167.50000	0.41841
167.60000	0.93450
167.70000	1.44903
167.80000	1.96100
167.90000	2.46944
168.00000	2.97339
168.10000	3.47188
168.20000	3.96395
168.30000	4.44864
168.40000	4.92503
168.50000	5.39218
168.60000	5.84917
168.70000	6.29513
168.80000	6.72915
168.90000	7.15039
169.00000	7.55800
169.10000	7.95117
169.20000	8.32910
169.30000	8.69104
169.40000	9.03625
169.50000	9.36401
169.60000	9.67367
169.70000	9.96457
169.80000	10.23611
169.90000	10.48773
170.00000	10.71890
170.10000	10.92913
170.20000	11.11798
170.30000	11.28505
170.40000	11.42999
170.50000	11.55248
170.60000	11.65227
170.70000	11.72914
170.80000	11.78292
170.90000	11.81351
171.00000	11.82084
171.10000	11.80489
171.20000	11.76569
171.30000	11.70333
171.40000	11.61793
171.50000	11.50968
171.60000	11.37880
171.70000	11.22557
171.80000	11.05029
171.90000	10.85333
172.00000	10.63510
172.10000	10.39605
172.20000	10.13665
172.30000	9.85744
172.40000	9.55899
172.50000	9.24188
172.60000	8.90677
172.70000	8.55432
172.80000	8.18523
172.90000	7.80023
173.00000	7.40009
173.10000	6.98558
173.20000	6.55752
173.30000	6.11675
173.40000	5.66411
173.50000	5.20048
173.60000	4.72675
173.70000	4.24384
173.80000	3.75267
173.90000	3.25416
174.00000	2.74928
174.10000	2.23897
174.20000	1.72422
174.30000	1.20599
174.40000	0.68526
174.50000	0.16303
174.60000	-0.35972
174.70000	-0.88199
174.80000	-1.40279
174.90000	-1.92112
175.00000	-2.43600
175.10000	-2.94643
175.20000	-3.45144
175.30000	-3.95006
175.40000	-4.44132
175.50000	-4.92426
175.60000	-5.39794
175.70000	-5.86144
175.80000	-6.31385
175.90000	-6.75427
176.00000	-7.18183
176.10000	-7.59569
176.20000	-7.99500
176.30000	-8.37897
176.40000	-8.74681
176.50000	-9.09780
176.60000	-9.43119
176.70000	-9.74632
176.80000	-10.04252
176.90000	-10.31919
177.00000	-10.57574
177.10000	-10.81165
177.20000	-11.02641
177.30000	-11.21957
177.40000	-11.39073
177.50000	-11.53952
177.60000	-11.66562
177.70000	-11.76877
177.80000	-11.84875
177.90000	-11.90540
178.00000	-11.93858
178.10000	-11.94824
178.20000	-11.93436
178.30000	-11.89696
178.40000	-11.83613
178.50000	-11.75200
178.60000	-11.64474
178.70000	-11.51459
178.80000	-11.36182
178.90000	-11.18675
179.00000	-10.98975
179.10000	-10.77122
179.20000	-10.53162
179.30000	-10.27144
179.40000	-9.99122
179.50000	-9.69152
179.60000	-9.37296
179.70000	-9.03617
179.80000	-8.68184
179.90000	-8.31067
180.00000	-7.92341
180.10000	-7.52080
180.20000	-7.10365
180.30000	-6.67278
180.40000	-6.22902
180.50000	-5.77322
180.60000	-5.30628
180.70000	-4.82908
180.80000	-4.34254
180.90000	-3.84758
181.00000	-3.34515
181.10000	-2.83619
181.20000	-2.32167
181.30000	-1.80256
181.40000	-1.27984
181.50000	-0.75450
181.60000	-0.22752
181.70000	0.30010
181.80000	0.82736
181.90000	1.35326
182.00000	1.87680
182.10000	2.39699
182.20000	2.91284
182.30000	3.42335
182.40000	3.92756
182.50000	4.42448
182.60000	4.91315
182.70000	5.39263
182.80000	5.86197
182.90000	6.32026
183.00000	6.76660
183.10000	7.20010
183.20000	7.61989
183.30000	8.02513
183.40000	8.41502
183.50000	8.78875
183.60000	9.14557
183.70000	9.48474
183.80000	9.80557
183.90000	10.10739
184.00000	10.38956
184.10000	10.65151
184.20000	10.89267
184.30000	11.11255
184.40000	11.31066
184.50000	11.48660
184.60000	11.63998
184.70000	11.77048
184.80000	11.87782
184.90000	11.96176
185.00000	12.02214
185.10000	12.05881
185.20000	12.07170
185.30000	12.06079
185.40000	12.02609
185.50000	11.96768
185.60000	11.88567
185.70000	11.78025
185.80000	11.65164
185.90000	11.50009
186.00000	11.32594
186.10000	11.12954
186.20000	10.91131
186.30000	10.67168
186.40000	10.41116
186.50000	10.13028
186.60000	9.82961
186.70000	9.50976
186.80000	9.17139
186.90000	8.81516
187.00000	8.44180
187.10000	8.05204
187.20000	7.64666
187.30000	7.22646
187.40000	6.79226
187.50000	6.34490
187.60000	5.88525
187.70000	5.41420
187.80000	4.93266
187.90000	4.44154
188.00000	3.94179
188.10000	3.43435
188.20000	2.92019
188.30000	2.40028
188.40000	1.87560
188.50000	1.34716
188.60000	0.81593
188.70000	0.28294
188.80000	-0.25081
188.90000	-0.78430
189.00000	-1.31654
189.10000	-1.84649
189.20000	-2.37316
189.30000	-2.89553
189.40000	-3.41260
189.50000	-3.92338
189.60000	-4.42687
189.70000	-4.92210
189.80000	-5.40811
189.90000	-5.88394
190.00000	-6.34865
190.10000	-6.80134
190.20000	-7.24109
190.30000	-7.66702
190.40000	-8.07829
190.50000	-8.47406
190.60000	-8.85353
190.70000	-9.21591
190.80000	-9.56048
190.90000	-9.88650
191.00000	-10.19332
191.10000	-10.48029
191.20000	-10.74680
191.30000	-10.99231
191.40000	-11.21629
191.50000	-11.41828
191.60000	-11.59783
191.70000	-11.75459
191.80000	-11.88820
191.90000	-11.99840
192.00000	-12.08495
192.10000	-12.14767
192.20000	-12.18643
192.30000	-12.20114
192.40000	-12.19179
192.50000	-12.15839
192.60000	-12.10103
192.70000	-12.01982
192.80000	-11.91493
192.90000	-11.78660
193.00000	-11.63510
193.10000	-11.46074
193.20000	-11.26390
193.30000	-11.04497
193.40000	-10.80443
193.50000	-10.54276
193.60000	-10.26050
193.70000	-9.95824
193.80000	-9.63658
193.90000	-9.29618
194.00000	-8.93772
194.10000	-8.56192
194.20000	-8.16953
194.30000	-7.76133
194.40000	-7.33812
194.50000	-6.90072
194.60000	-6.44999
194.70000	-5.98680
194.80000	-5.51204
194.90000	-5.02663
195.00000	-4.53149
195.10000	-4.02757
195.20000	-3.51582
195.30000	-2.99721
195.40000	-2.47273
195.50000	-1.94337
195.60000	-1.41012
195.70000	-0.87400
195.80000	-0.33601
195.90000	0.20283
196.00000	0.74150
196.10000	1.27898
196.20000	1.81424
196.30000	2.34627
196.40000	2.87406
196.50000	3.39660
196.60000	3.91288
196.70000	4.42190
196.80000	4.92270
196.90000	5.41428
197.00000	5.89569
197.10000	6.36599
197.20000	6.82426
197.30000	7.26957
197.40000	7.70106
197.50000	8.11784
197.60000	8.51908
197.70000	8.90397
197.80000	9.27172
197.90000	9.62157
198.00000	9.95281
198.10000	10.26474
198.20000	10.55673
198.30000	10.82814
198.40000	11.07842
198.50000	11.30704
198.60000	11.51351
198.70000	11.69739
198.80000	11.85829
198.90000	11.99587
199.00000	12.10984
199.10000	12.19994
199.20000	12.26600
199.30000	12.30786
199.40000	12.32543
199.50000	12.31869
199.60000	12.28763
199.70000	12.23234
199.80000	12.15291
199.90000	12.04952
200.00000	11.92239
200.10000	11.77178
200.20000	11.59801
200.30000	11.40143
200.40000	11.18246
200.50000	10.94153
200.60000	10.67916
200.70000	10.39587
200.80000	10.09223
200.90000	9.76887
201.00000	9.42643
201.10000	9.06560
201.20000	8.68710
201.30000	8.29169
201.40000	7.88013
201.50000	7.45326
201.60000	7.01189
201.70000	6.55689
201.80000	6.08915
201.90000	5.60957
202.00000	5.11907
202.10000	4.61860
202.20000	4.10912
202.30000	3.59159
202.40000	3.06700
202.50000	2.53636
202.60000	2.00066
202.70000	1.46093
202.80000	0.91819
202.90000	0.37346
203.00000	-0.17220
203.10000	-0.71778
203.20000	-1.26223
203.30000	-1.80451
203.40000	-2.34358
203.50000	-2.87842
203.60000	-3.40800
203.70000	-3.93129
203.80000	-4.44729
203.90000	-4.95499
204.00000	-5.45341
204.10000	-5.94156
204.20000	-6.41850
204.30000	-6.88328
204.40000	-7.33498
204.50000	-7.77270
204.60000	-8.19556
204.70000	-8.60271
204.80000	-8.99332
204.90000	-9.36660
205.00000	-9.72178
205.10000	-10.05813
205.20000	-10.37496
205.30000	-10.67160
205.40000	-10.94743
205.50000	-11.20188
205.60000	-11.43441
205.70000	-11.64452
205.80000	-11.83177
205.90000	-11.99577
206.00000	-12.13615
206.10000	-12.25263
206.20000	-12.34495
206.30000	-12.41292
206.40000	-12.45639
206.50000	-12.47526
206.60000	-12.46951
206.70000	-12.43913
206.80000	-12.38421
206.90000	-12.30485
207.00000	-12.20122
207.10000	-12.07355
207.20000	-11.92210
207.30000	-11.74720
207.40000	-11.54920
207.50000	-11.32853
207.60000	-11.08565
207.70000	-10.82105
207.80000	-10.53528
207.90000	-10.22892
208.00000	-9.90261
208.10000	-9.55700
208.20000	-9.19279
208.30000	-8.81071
208.40000	-8.41152
208.50000	-7.99601
208.60000	-7.56500
208.70000	-7.11934
208.80000	-6.65989
208.90000	-6.18755
209.00000	-5.70323
209.10000	-5.20786
209.20000	-4.70239
209.30000	-4.18779
209.40000	-3.66504
209.50000	-3.13512
209.60000	-2.59904
209.70000	-2.05782
209.80000	-1.51248
209.90000	-0.96405
210.00000	-0.41356
210.10000	0.13794
210.20000	0.68942
210.30000	1.23982
210.40000	1.78812
210.50000	2.33325
210.60000	2.87420
210.70000	3.40991
210.80000	3.93937
210.90000	4.46155
211.00000	4.97545
211.10000	5.48007
211.20000	5.97442
211.30000	6.45753
211.40000	6.92845
211.50000	7.38625
211.60000	7.83002
211.70000	8.25885
211.80000	8.67190
211.90000	9.06832
212.00000	9.44729
212.10000	9.80805
212.20000	10.14985
212.30000	10.47197
212.40000	10.77375
212.50000	11.05454
212.60000	11.31377
212.70000	11.55086
212.80000	11.76533
212.90000	11.95671
213.00000	12.12459
213.10000	12.26861
213.20000	12.38846
213.30000	12.48387
213.40000	12.55464
213.50000	12.60061
213.60000	12.62168
213.70000	12.61781
213.80000	12.58899
213.90000	12.53529
214.00000	12.45681
214.10000	12.35373
214.20000	12.22626
214.30000	12.07467
214.40000	11.89927
214.50000	11.70044
214.60000	11.47858
214.70000	11.23417
214.80000	10.96770
214.90000	10.67972
215.00000	10.37084
215.10000	10.04167
215.20000	9.69288
215.30000	9.32519
215.40000	8.93932
215.50000	8.53605
215.60000	8.11619
215.70000	7.68055
215.80000	7.23000
215.90000	6.76542
216.00000	6.28770
216.10000	5.79778
216.20000	5.29660
216.30000	4.78512
216.40000	4.26433
216.50000	3.73520
216.60000	3.19876
216.70000	2.65601
216.80000	2.10798
216.90000	1.55572
217.00000	1.00027
217.10000	0.44268
217.20000	-0.11601
217.30000	-0.67472
217.40000	-1.23240
217.50000	-1.78800
217.60000	-2.34045
217.70000	-2.88870
217.80000	-3.43170
217.90000	-3.96840
218.00000	-4.49777
218.10000	-5.01878
218.20000	-5.53042
218.30000	-6.03169
218.40000	-6.52159
218.50000	-6.99917
218.60000	-7.46346
218.70000	-7.91354
218.80000	-8.34850
218.90000	-8.76747
219.00000	-9.16959
219.10000	-9.55402
219.20000	-9.92000
219.30000	-10.26674
219.40000	-10.59354
219.50000	-10.89971
219.60000	-11.18460
219.70000	-11.44762
219.80000	-11.68820
219.90000	-11.90583
220.00000	-12.10005
220.10000	-12.27045
220.20000	-12.41666
220.30000	-12.53836
220.40000	-12.63531
220.50000	-12.70727
220.60000	-12.75412
220.70000	-12.77574
220.80000	-12.77209
220.90000	-12.74318
221.00000	-12.68908
221.10000	-12.60990
221.20000	-12.50582
221.30000	-12.37705
221.40000	-12.22388
221.50000	-12.04663
221.60000	-11.84568
221.70000	-11.62145
221.80000	-11.37441
221.90000	-11.10508
222.00000	-10.81401
222.10000	-10.50181
222.20000	-10.16911
222.30000	-9.81659
222.40000	-9.44497
222.50000	-9.05500
222.60000	-8.64744
222.70000	-8.22311
222.80000	-7.78286
222.90000	-7.32754
223.00000	-6.85804
223.10000	-6.37527
223.20000	-5.88017
223.30000	-5.37369
223.40000	-4.85680
223.50000	-4.33048
223.60000	-3.79575
223.70000	-3.25360
223.80000	-2.70507
223.90000	-2.15119
224.00000	-1.59301
224.10000	-1.03157
224.20000	-0.46795
224.30000	0.09680
224.40000	0.66162
224.50000	1.22544
224.60000	1.78719
224.70000	2.34580
224.80000	2.90022
224.90000	3.44937
225.00000	3.99222
225.10000	4.52772
225.20000	5.05482
225.30000	5.57251
225.40000	6.07978
225.50000	6.57563
225.60000	7.05907
225.70000	7.52916
225.80000	7.98494
225.90000	8.42551
226.00000	8.84996
226.10000	9.25744
226.20000	9.64711
226.30000	10.01817
226.40000	10.36985
226.50000	10.70140
226.60000	11.01215
226.70000	11.30143
226.80000	11.56862
226.90000	11.81316
227.00000	12.03453
227.10000	12.23226
227.20000	12.40590
227.30000	12.55510
227.40000	12.67952
227.50000	12.77889
227.60000	12.85301
227.70000	12.90170
227.80000	12.92486
227.90000	12.92244
228.00000	12.89444
228.10000	12.84093
228.20000	12.76200
228.30000	12.65784
228.40000	12.52866
228.50000	12.37474
228.60000	12.19640
228.70000	11.99402
228.80000	11.76802
228.90000	11.51888
229.00000	11.24711
229.10000	10.95328
229.20000	10.63799
229.30000	10.30189
229.40000	9.94566
229.50000	9.57002
229.60000	9.17572
229.70000	8.76356
229.80000	8.33435
229.90000	7.88895
230.00000	7.42822
230.10000	6.95307
230.20000	6.46442
230.30000	5.96323
230.40000	5.45044
230.50000	4.92706
230.60000	4.39407
230.70000	3.85251
230.80000	3.30339
230.90000	2.74776
231.00000	2.18667
231.10000	1.62118
231.20000	1.05237
231.30000	0.48131
231.40000	-0.09093
231.50000	-0.66325
231.60000	-1.23457
231.70000	-1.80382
231.80000	-2.36989
231.90000	-2.93172
232.00000	-3.48822
232.10000	-4.03833
232.20000	-4.58099
232.30000	-5.11513
232.40000	-5.63972
232.50000	-6.15374
232.60000	-6.65616
232.70000	-7.14600
232.80000	-7.62228
232.90000	-8.08404
233.00000	-8.53035
233.10000	-8.96031
233.20000	-9.37304
233.30000	-9.76770
233.40000	-10.14346
233.50000	-10.49955
233.60000	-10.83523
233.70000	-11.14979
233.80000	-11.44257
233.90000	-11.71295
234.00000	-11.96035
234.10000	-12.18425
234.20000	-12.38417
234.30000	-12.55968
234.40000	-12.71040
234.50000	-12.83600
234.60000	-12.93623
234.70000	-13.01085
234.80000	-13.05972
234.90000	-13.08273
235.00000	-13.07983
235.10000	-13.05102
235.20000	-12.99638
235.30000	-12.91602
235.40000	-12.81012
235.50000	-12.67890
235.60000	-12.52266
235.70000	-12.34172
235.80000	-12.13647
235.90000	-11.90735
236.00000	-11.65483
236.10000	-11.37945
236.20000	-11.08178
236.30000	-10.76244
236.40000	-10.42208
236.50000	-10.06139
236.60000	-9.68112
236.70000	-9.28202
236.80000	-8.86490
236.90000	-8.43058
237.00000	-7.97993
237.10000	-7.51383
237.20000	-7.03319
237.30000	-6.53895
237.40000	-6.03206
237.50000	-5.51350
237.60000	-4.98425
237.70000	-4.44534
237.80000	-3.89779
237.90000	-3.34263
238.00000	-2.78092
238.10000	-2.21371
238.20000	-1.64207
238.30000	-1.06709
238.40000	-0.48984
238.50000	0.08859
238.60000	0.66710
238.70000	1.24462
238.80000	1.82003
238.90000	2.39226
239.00000	2.96022
239.10000	3.52281
239.20000	4.07896
239.30000	4.62761
239.40000	5.16769
239.50000	5.69815
239.60000	6.21795
239.70000	6.72608
239.80000	7.22153
239.90000	7.70330
240.00000	8.17045
240.10000	8.62202
240.20000	9.05710
240.30000	9.47481
240.40000	9.87428
240.50000	10.25469
240.60000	10.61524
240.70000	10.95519
240.80000	11.27381
240.90000	11.57044
241.00000	11.84444
241.10000	12.09522
241.20000	12.32225
241.30000	12.52504
241.40000	12.70314
241.50000	12.85618
241.60000	12.98382
241.70000	13.08578
241.80000	13.16184
241.90000	13.21182
242.00000	13.23563
242.10000	13.23320
242.20000	13.20454
242.30000	13.14971
242.40000	13.06883
242.50000	12.96207
242.60000	12.82966
242.70000	12.67188
242.80000	12.48907
242.90000	12.28161
243.00000	12.04994
243.10000	11.79456
243.20000	11.51598
243.30000	11.21479
243.40000	10.89162
243.50000	10.54713
243.60000	10.18201
243.70000	9.79702
243.80000	9.39292
243.90000	8.97053
244.00000	8.53069
244.10000	8.07426
244.20000	7.60216
244.30000	7.11529
244.40000	6.61462
244.50000	6.10110
244.60000	5.57574
244.70000	5.03953
244.80000	4.49351
244.90000	3.93871
245.00000	3.37620
245.10000	2.80703
245.20000	2.23228
245.30000	1.65305
245.40000	1.07043
245.50000	0.48551
245.60000	-0.10060
245.70000	-0.68679
245.80000	-1.27194
245.90000	-1.85495
246.00000	-2.43472
246.10000	-3.01012
246.20000	-3.58007
246.30000	-4.14346
246.40000	-4.69920
246.50000	-5.24623
246.60000	-5.78346
246.70000	-6.30985
246.80000	-6.82436
246.90000	-7.32597
247.00000	-7.81368
247.10000	-8.28650
247.20000	-8.74348
247.30000	-9.18370
247.40000	-9.60625
247.50000	-10.01027
247.60000	-10.39490
247.70000	-10.75937
247.80000	-11.10289
247.90000	-11.42475
248.00000	-11.72427
248.10000	-12.00080
248.20000	-12.25377
248.30000	-12.48262
248.40000	-12.68687
248.50000	-12.86607
248.60000	-13.01985
248.70000	-13.14786
248.80000	-13.24983
248.90000	-13.32555
249.00000	-13.37484
249.10000	-13.39761
249.20000	-13.39381
249.30000	-13.36345
249.40000	-13.30659
249.50000	-13.22337
249.60000	-13.11397
249.70000	-12.97863
249.80000	-12.81763
249.90000	-12.63134
250.00000	-12.42014
250.10000	-12.18448
250.20000	-11.92487
250.30000	-11.64186
250.40000	-11.33603
250.50000	-11.00801
250.60000	-10.65849
250.70000	-10.28818
250.80000	-9.89783
250.90000	-9.48823
251.00000	-9.06021
251.10000	-8.61461
251.20000	-8.15232
251.30000	-7.67425
251.40000	-7.18133
251.50000	-6.67452
251.60000	-6.15480
251.70000	-5.62317
251.80000	-5.08065
251.90000	-4.52828
252.00000	-3.96710
252.10000	-3.39818
252.20000	-2.82259
252.30000	-2.24143
252.40000	-1.65577
252.50000	-1.06674
252.60000	-0.47543
252.70000	0.11704
252.80000	0.70956
252.90000	1.30100
253.00000	1.89025
253.10000	2.47619
253.20000	3.05771
253.30000	3.63370
253.40000	4.20305
253.50000	4.76467
253.60000	5.31746
253.70000	5.86036
253.80000	6.39231
253.90000	6.91225
254.00000	7.41915
254.10000	7.91201
254.20000	8.38984
254.30000	8.85166
254.40000	9.29656
254.50000	9.72360
254.60000	10.13191
254.70000	10.52065
254.80000	10.88900
254.90000	11.23619
255.00000	11.56149
255.10000	11.86421
255.20000	12.14369
255.30000	12.39934
255.40000	12.63061
255.50000	12.83700
255.60000	13.01805
255.70000	13.17338
255.80000	13.30264
255.90000	13.40555
256.00000	13.48189
256.10000	13.53148
256.20000	13.55422
256.30000	13.55006
256.40000	13.51900
256.50000	13.46111
256.60000	13.37652
256.70000	13.26540
256.80000	13.12800
256.90000	12.96461
257.00000	12.77559
257.10000	12.56133
257.20000	12.32228
257.30000	12.05896
257.40000	11.77191
257.50000	11.46174
257.60000	11.12908
257.70000	10.77462
257.80000	10.39909
257.90000	10.00325
258.00000	9.58790
258.10000	9.15387
258.20000	8.70203
258.30000	8.23327
258.40000	7.74853
258.50000	7.24874
258.60000	6.73488
258.70000	6.20794
258.80000	5.66895
258.90000	5.11894
259.00000	4.55895
259.10000	3.99006
259.20000	3.41335
259.30000	2.82991
259.40000	2.24085
259.50000	1.64727
259.60000	1.05030
259.70000	0.45106
259.80000	-0.14930
259.90000	-0.74967
260.00000	-1.34889
260.10000	-1.94584
260.20000	-2.53938
260.30000	-3.12837
260.40000	-3.71168
260.50000	-4.28821
260.60000	-4.85682
260.70000	-5.41641
260.80000	-5.96590
260.90000	-6.50421
261.00000	-7.03026
261.10000	-7.54302
261.20000	-8.04147
261.30000	-8.52458
261.40000	-8.99140
261.50000	-9.44096
261.60000	-9.87234
261.70000	-10.28466
261.80000	-10.67706
261.90000	-11.04871
262.00000	-11.39883
262.10000	-11.72669
262.20000	-12.03159
262.30000	-12.31287
262.40000	-12.56993
262.50000	-12.80223
262.60000	-13.00926
262.70000	-13.19057
262.80000	-13.34576
262.90000	-13.47451
263.00000	-13.57653
263.10000	-13.65161
263.20000	-13.69958
263.30000	-13.72033
263.40000	-13.71384
263.50000	-13.68010
263.60000	-13.61921
263.70000	-13.53130
263.80000	-13.41656
263.90000	-13.27525
264.00000	-13.10767
264.10000	-12.91418
264.20000	-12.69521
264.30000	-12.45122
264.40000	-12.18273
264.50000	-11.89030
264.60000	-11.57456
264.70000	-11.23616
264.80000	-10.87580
264.90000	-10.49421
265.00000	-10.09218
265.10000	-9.67052
265.20000	-9.23008
265.30000	-8.77174
265.40000	-8.29640
265.50000	-7.80500
265.60000	-7.29851
265.70000	-6.77791
265.80000	-6.24420
265.90000	-5.69841
266.00000	-5.14159
266.10000	-4.57480
266.20000	-3.99911
266.30000	-3.41562
266.40000	-2.82543
266.50000	-2.22966
266.60000	-1.62941
266.70000	-1.02582
266.80000	-0.42003
266.90000	0.18682
267.00000	0.79360
267.10000	1.39916
267.20000	2.00235
267.30000	2.60204
267.40000	3.19707
267.50000	3.78633
267.60000	4.36866
267.70000	4.94296
267.80000	5.50812
267.90000	6.06302
268.00000	6.60659
268.10000	7.13776
268.20000	7.65546
268.30000	8.15866
268.40000	8.64636
268.50000	9.11756
268.60000	9.57131
268.70000	10.00667
268.80000	10.42273
268.90000	10.81864
269.00000	11.19357
269.10000	11.54671
269.20000	11.87734
269.30000	12.18472
269.40000	12.46822
269.50000	12.72721
269.60000	12.96113
269.70000	13.16948
269.80000	13.35180
269.90000	13.50769
270.00000	13.63680
270.10000	13.73886
270.20000	13.81363
270.30000	13.86096
270.40000	13.88074
270.50000	13.87291
270.60000	13.83751
270.70000	13.77461
270.80000	13.68434
270.90000	13.56689
271.00000	13.42254
271.10000	13.25158
271.20000	13.05438
271.30000	12.83137
271.40000	12.58302
271.50000	12.30987
271.60000	12.01247
271.70000	11.69146
271.80000	11.34751
271.90000	10.98132
272.00000	10.59364
272.10000	10.18528
272.20000	9.75704
272.30000	9.30980
272.40000	8.84444
272.50000	8.36190
272.60000	7.86311
272.70000	7.34906
272.80000	6.82075
272.90000	6.27921
273.00000	5.72547
273.10000	5.16060
273.20000	4.58567
273.30000	4.00180
273.40000	3.41007
273.50000	2.81161
273.60000	2.20756
273.70000	1.59906
273.80000	0.98724
273.90000	0.37327
274.00000	-0.24169
274.10000	-0.85649
274.20000	-1.46996
274.30000	-2.08094
274.40000	-2.68826
274.50000	-3.29076
274.60000	-3.88730
274.70000	-4.47672
274.80000	-5.05789
274.90000	-5.62966
275.00000	-6.19093
275.10000	-6.74060
275.20000	-7.27756
275.30000	-7.80076
275.40000	-8.30914
275.50000	-8.80168
275.60000	-9.27738
275.70000	-9.73525
275.80000	-10.17437
275.90000	-10.59382
276.00000	-10.99272
276.10000	-11.37024
276.20000	-11.72557
276.30000	-12.05797
276.40000	-12.36672
276.50000	-12.65116
276.60000	-12.91068
276.70000	-13.14472
276.80000	-13.35276
276.90000	-13.53436
277.00000	-13.68912
277.10000	-13.81670
277.20000	-13.91682
277.30000	-13.98928
277.40000	-14.03391
277.50000	-14.05062
277.60000	-14.03937
277.70000	-14.00020
277.80000	-13.93319
277.90000	-13.83850
278.00000	-13.71633
278.10000	-13.56697
278.20000	-13.39073
278.30000	-13.18800
278.40000	-12.95922
278.50000	-12.70488
278.60000	-12.42553
278.70000	-12.12175
278.80000	-11.79419
278.90000	-11.44353
279.00000	-11.07050
279.10000	-10.67587
279.20000	-10.26043
279.30000	-9.82505
279.40000	-9.37058
279.50000	-8.89794
279.60000	-8.40806
279.70000	-7.90192
279.80000	-7.38049
279.90000	-6.84480
280.00000	-6.29588
280.10000	-5.73479
280.20000	-5.16259
280.30000	-4.58039
280.40000	-3.98927
280.50000	-3.39037
280.60000	-2.78481
280.70000	-2.17374
280.80000	-1.55829
280.90000	-0.93963
281.00000	-0.31891
281.10000	0.30268
281.20000	0.92400
281.30000	1.54386
281.40000	2.16109
281.50000	2.77453
281.60000	3.38300
281.70000	3.98535
281.80000	4.58042
281.90000	5.16707
282.00000	5.74415
282.10000	6.31054
282.20000	6.86512
282.30000	7.40681
282.40000	7.93452
282.50000	8.44720
282.60000	8.94381
282.70000	9.42334
282.80000	9.88481
282.90000	10.32727
283.00000	10.74980
283.10000	11.15152
283.20000	11.53157
283.30000	11.88916
283.40000	12.22351
283.50000	12.53392
283.60000	12.81971
283.70000	13.08026
283.80000	13.31500
283.90000	13.52342
284.00000	13.70506
284.10000	13.85953
284.20000	13.98647
284.30000	14.08562
284.40000	14.15674
284.50000	14.19968
284.60000	14.21435
284.70000	14.20072
284.80000	14.15880
284.90000	14.08870
285.00000	13.99057
285.10000	13.86463
285.20000	13.71115
285.30000	13.53046
285.40000	13.32295
285.50000	13.08907
285.60000	12.82933
285.70000	12.54427
285.80000	12.23450
285.90000	11.90067
286.00000	11.54347
286.10000	11.16365
286.20000	10.76198
286.30000	10.33928
286.40000	9.89642
286.50000	9.43428
286.60000	8.95378
286.70000	8.45589
286.80000	7.94157
286.90000	7.41185
287.00000	6.86774
287.10000	6.31031
287.20000	5.74063
287.30000	5.15978
287.40000	4.56888
287.50000	3.96906
287.60000	3.36145
287.70000	2.74719
287.80000	2.12745
287.90000	1.50340
288.00000	0.87622
288.10000	0.24707
288.20000	-0.38284
288.30000	-1.01233
288.40000	-1.64020
288.50000	-2.26528
288.60000	-2.88636
288.70000	-3.50227
288.80000	-4.11182
288.90000	-4.71383
289.00000	-5.30714
289.10000	-5.89060
289.20000	-6.46306
289.30000	-7.02340
289.40000	-7.57049
289.50000	-8.10326
289.60000	-8.62062
289.70000	-9.12153
289.80000	-9.60496
289.90000	-10.06993
290.00000	-10.51547
290.10000	-10.94065
290.20000	-11.34458
290.30000	-11.72640
290.40000	-12.08531
290.50000	-12.42054
290.60000	-12.73137
290.70000	-13.01713
290.80000	-13.27720
290.90000	-13.51101
291.00000	-13.71805
291.10000	-13.89787
291.20000	-14.05008
291.30000	-14.17435
291.40000	-14.27039
291.50000	-14.33801
291.60000	-14.37706
291.70000	-14.38746
291.80000	-14.36918
291.90000	-14.32228
292.00000	-14.24686
292.10000	-14.14309
292.20000	-14.01122
292.30000	-13.85152
292.40000	-13.66436
292.50000	-13.45014
292.60000	-13.20933
292.70000	-12.94245
292.80000	-12.65007
292.90000	-12.33282
293.00000	-11.99136
293.10000	-11.62641
293.20000	-11.23873
293.30000	-10.82911
293.40000	-10.39841
293.50000	-9.94748
293.60000	-9.47723
293.70000	-8.98862
293.80000	-8.48260
293.90000	-7.96017
294.00000	-7.42235
294.10000	-6.87020
294.20000	-6.30476
294.30000	-5.72714
294.40000	-5.13844
294.50000	-4.53977
294.60000	-3.93226
294.70000	-3.31708
294.80000	-2.69537
294.90000	-2.06830
295.00000	-1.43706
295.10000	-0.80282
295.20000	-0.16677
295.30000	0.46988
295.40000	1.10595
295.50000	1.74023
295.60000	2.37153
295.70000	2.99864
295.80000	3.62039
295.90000	4.23557
296.00000	4.84301
296.10000	5.44154
296.20000	6.02998
296.30000	6.60720
296.40000	7.17205
296.50000	7.72341
296.60000	8.26019
296.70000	8.78130
296.80000	9.28570
296.90000	9.77233
297.00000	10.24022
297.10000	10.68839
297.20000	11.11589
297.30000	11.52184
297.40000	11.90536
297.50000	12.26565
297.60000	12.60193
297.70000	12.91348
297.80000	13.19961
297.90000	13.45970
298.00000	13.69318
298.10000	13.89953
298.20000	14.07831
298.30000	14.22912
298.40000	14.35161
298.50000	14.44551
298.60000	14.51063
298.70000	14.54681
298.80000	14.55397
298.90000	14.53210
299.00000	14.48125
299.10000	14.40153
299.20000	14.29311
299.30000	14.15624
299.40000	13.99122
299.50000	13.79841
299.60000	13.57822
299.70000	13.33114
299.80000	13.05770
299.90000	12.75847
300.00000	12.43410
300.10000	12.08527
300.20000	11.71271
300.30000	11.31718
300.40000	10.89951
300.50000	10.46055
300.60000	10.00118
300.70000	9.52234
300.80000	9.02498
300.90000	8.51008
301.00000	7.97867
301.10000	7.43177
301.20000	6.87046
301.30000	6.29581
301.40000	5.70894
301.50000	5.11097
301.60000	4.50304
301.70000	3.88630
301.80000	3.26192
301.90000	2.63108
302.00000	1.99497
302.10000	1.35479
302.20000	0.71174
302.30000	0.06703
302.40000	-0.57812
302.50000	-1.22249
302.60000	-1.86486
302.70000	-2.50403
302.80000	-3.13876
302.90000	-3.76785
303.00000	-4.39009
303.10000	-5.00427
303.20000	-5.60921
303.30000	-6.20372
303.40000	-6.78664
303.50000	-7.35682
303.60000	-7.91311
303.70000	-8.45440
303.80000	-8.97961
303.90000	-9.48765
304.00000	-9.97749
304.10000	-10.44812
304.20000	-10.89855
304.30000	-11.32785
304.40000	-11.73510
304.50000	-12.11945
304.60000	-12.48006
304.70000	-12.81618
304.80000	-13.12706
304.90000	-13.41204
305.00000	-13.67048
305.10000	-13.90184
305.20000	-14.10560
305.30000	-14.28131
305.40000	-14.42858
305.50000	-14.54710
305.60000	-14.63660
305.70000	-14.69689
305.80000	-14.72784
305.90000	-14.72938
306.00000	-14.70152
306.10000	-14.64433
306.20000	-14.55794
306.30000	-14.44255
306.40000	-14.29841
306.50000	-14.12586
306.60000	-13.92527
306.70000	-13.69708
306.80000	-13.44180
306.90000	-13.15998
307.00000	-12.85222
307.10000	-12.51919
307.20000	-12.16158
307.30000	-11.78014
307.40000	-11.37567
307.50000	-10.94901
307.60000	-10.50103
307.70000	-10.03263
307.80000	-9.54476
307.90000	-9.03839
308.00000	-8.51454
308.10000	-7.97421
308.20000	-7.41848
308.30000	-6.84842
308.40000	-6.26513
308.50000	-5.66973
308.60000	-5.06335
308.70000	-4.44715
308.80000	-3.82229
308.90000	-3.18995
309.00000	-2.55131
309.10000	-1.90759
309.20000	-1.25997
309.30000	-0.60969
309.40000	0.04205
309.50000	0.69401
309.60000	1.34499
309.70000	1.99374
309.80000	2.63904
309.90000	3.27967
310.00000	3.91441
310.10000	4.54204
310.20000	5.16135
310.30000	5.77115
310.40000	6.37025
310.50000	6.95748
310.60000	7.53167
310.70000	8.09167
310.80000	8.63638
310.90000	9.16469
311.00000	9.67551
311.10000	10.16781
311.20000	10.64056
311.30000	11.09279
311.40000	11.52353
311.50000	11.93188
311.60000	12.31696
311.70000	12.67795
311.80000	13.01407
311.90000	13.32459
312.00000	13.60883
312.10000	13.86616
312.20000	14.09602
312.30000	14.29789
312.40000	14.47133
312.50000	14.61595
312.60000	14.73142
312.70000	14.81750
312.80000	14.87398
312.90000	14.90075
313.00000	14.89774
313.10000	14.86495
313.20000	14.80248
313.30000	14.71045
313.40000	14.58907
313.50000	14.43862
313.60000	14.25942
313.70000	14.05186
313.80000	13.81642
313.90000	13.55358
314.00000	13.26393
314.10000	12.94808
314.20000	12.60670
314.30000	12.24052
314.40000	11.85029
314.50000	11.43684
314.60000	11.00101
314.70000	10.54370
314.80000	10.06583
314.90000	9.56836
315.00000	9.05228
315.10000	8.51863
315.20000	7.96844
315.30000	7.40280
315.40000	6.82280
315.50000	6.22956
315.60000	5.62423
315.70000	5.00795
315.80000	4.38190
315.90000	3.74727
316.00000	3.10526
316.10000	2.45708
316.20000	1.80394
316.30000	1.14708
316.40000	0.48774
316.50000	-0.17285
316.60000	-0.83345
316.70000	-1.49280
316.80000	-2.14965
316.90000	-2.80277
317.00000	-3.45091
317.10000	-4.09282
317.20000	-4.72727
317.30000	-5.35303
317.40000	-5.96889
317.50000	-6.57364
317.60000	-7.16609
317.70000	-7.74507
317.80000	-8.30940
317.90000	-8.85796
318.00000	-9.38964
318.10000	-9.90334
318.20000	-10.39801
318.30000	-10.87261
318.40000	-11.32616
318.50000	-11.75770
318.60000	-12.16630
318.70000	-12.55111
318.80000	-12.91128
318.90000	-13.24605
319.00000	-13.55468
319.10000	-13.83649
319.20000	-14.09087
319.30000	-14.31726
319.40000	-14.51516
319.50000	-14.68413
319.60000	-14.82380
319.70000	-14.93386
319.80000	-15.01406
319.90000	-15.06424
320.00000	-15.08429
320.10000	-15.07417
320.20000	-15.03392
320.30000	-14.96361
320.40000	-14.86343
320.50000	-14.73360
320.60000	-14.57442
320.70000	-14.38624
320.80000	-14.16949
320.90000	-13.92464
321.00000	-13.65223
321.10000	-13.35286
321.20000	-13.02716
321.30000	-12.67583
321.40000	-12.29963
321.50000	-11.89934
321.60000	-11.47579
321.70000	-11.02985
321.80000	-10.56245
321.90000	-10.07452
322.00000	-9.56706
322.10000	-9.04106
322.20000	-8.49758
322.30000	-7.93767
322.40000	-7.36243
322.50000	-6.77298
322.60000	-6.17045
322.70000	-5.55598
322.80000	-4.93076
322.90000	-4.29596
323.00000	-3.65279
323.10000	-3.00245
323.20000	-2.34616
323.30000	-1.68516
323.40000	-1.02068
323.50000	-0.35397
323.60000	0.31373
323.70000	0.98116
323.80000	1.64707
323.90000	2.31020
324.00000	2.96930
324.10000	3.62311
324.20000	4.27040
324.30000	4.90992
324.40000	5.54043
324.50000	6.16071
324.60000	6.76955
324.70000	7.36575
324.80000	7.94813
324.90000	8.51552
325.00000	9.06678
325.10000	9.60079
325.20000	10.11646
325.30000	10.61271
325.40000	11.08852
325.50000	11.54289
325.60000	11.97486
325.70000	12.38350
325.80000	12.76794
325.90000	13.12734
326.00000	13.46093
326.10000	13.76797
326.20000	14.04778
326.30000	14.29975
326.40000	14.52331
326.50000	14.71796
326.60000	14.88328
326.70000	15.01889
326.80000	15.12448
326.90000	15.19982
327.00000	15.24474
327.10000	15.25914
327.20000	15.24298
327.30000	15.19632
327.40000	15.11925
327.50000	15.01195
327.60000	14.87466
327.70000	14.70769
327.80000	14.51141
327.90000	14.28626
328.00000	14.03272
328.10000	13.75136
328.20000	13.44278
328.30000	13.10764
328.40000	12.74665
328.50000	12.36059
328.60000	11.95026
328.70000	11.51651
328.80000	11.06023
328.90000	10.58236
329.00000	10.08387
329.10000	9.56575
329.20000	9.02905
329.30000	8.47481
329.40000	7.90414
329.50000	7.31814
329.60000	6.71795
329.70000	6.10472
329.80000	5.47964
329.90000	4.84388
330.00000	4.19867
330.10000	3.54521
330.20000	2.88475
330.30000	2.21852
330.40000	1.54777
330.50000	0.87378
330.60000	0.19780
330.70000	-0.47889
330.80000	-1.15502
330.90000	-1.82932
331.00000	-2.50050
331.10000	-3.16729
331.20000	-3.82842
331.30000	-4.48262
331.40000	-5.12863
331.50000	-5.76520
331.60000	-6.39107
331.70000	-7.00503
331.80000	-7.60586
331.90000	-8.19236
332.00000	-8.76334
332.10000	-9.31765
332.20000	-9.85417
332.30000	-10.37178
332.40000	-10.86941
332.50000	-11.34602
332.60000	-11.80060
332.70000	-12.23220
332.80000	-12.63987
332.90000	-13.02276
333.00000	-13.38002
333.10000	-13.71088
333.20000	-14.01460
333.30000	-14.29054
333.40000	-14.53806
333.50000	-14.75663
333.60000	-14.94576
333.70000	-15.10502
333.80000	-15.23408
333.90000	-15.33263
334.00000	-15.40047
334.10000	-15.43744
334.20000	-15.44348
334.30000	-15.41857
334.40000	-15.36279
334.50000	-15.27626
334.60000	-15.15919
334.70000	-15.01184
334.80000	-14.83456
334.90000	-14.62774
335.00000	-14.39185
335.10000	-14.12741
335.20000	-13.83500
335.30000	-13.51525
335.40000	-13.16887
335.50000	-12.79659
335.60000	-12.39920
335.70000	-11.97753
335.80000	-11.53247
335.90000	-11.06493
336.00000	-10.57586
336.10000	-10.06626
336.20000	-9.53715
336.30000	-8.98958
336.40000	-8.42464
336.50000	-7.84342
336.60000	-7.24706
336.70000	-6.63672
336.80000	-6.01355
336.90000	-5.37876
337.00000	-4.73355
337.10000	-4.07912
337.20000	-3.41673
337.30000	-2.74761
337.40000	-2.07302
337.50000	-1.39421
337.60000	-0.71246
337.70000	-0.02904
337.80000	0.65477
337.90000	1.33768
338.00000	2.01841
338.10000	2.69568
338.20000	3.36821
338.30000	4.03472
338.40000	4.69392
338.50000	5.34456
338.60000	5.98538
338.70000	6.61512
338.80000	7.23255
338.90000	7.83645
339.00000	8.42561
339.10000	8.99885
339.20000	9.55501
339.30000	10.09295
339.40000	10.61155
339.50000	11.10975
339.60000	11.58649
339.70000	12.04077
339.80000	12.47161
339.90000	12.87809
340.00000	13.25934
340.10000	13.61451
340.20000	13.94282
340.30000	14.24356
340.40000	14.51606
340.50000	14.75969
340.60000	14.97393
340.70000	15.15829
340.80000	15.31235
340.90000	15.43576
341.00000	15.52825
341.10000	15.58961
341.20000	15.61970
341.30000	15.61846
341.40000	15.58589
341.50000	15.52206
341.60000	15.42714
341.70000	15.30132
341.80000	15.14490
341.90000	14.95824
342.00000	14.74173
342.10000	14.49588
342.20000	14.22122
342.30000	13.91834
342.40000	13.58791
342.50000	13.23064
342.60000	12.84729
342.70000	12.43867
342.80000	12.00563
342.90000	11.54908
343.00000	11.06996
343.10000	10.56923
343.20000	10.04792
343.30000	9.50707
343.40000	8.94776
343.50000	8.37108
343.60000	7.77818
343.70000	7.17019
343.80000	6.54831
343.90000	5.91371
344.00000	5.26762
344.10000	4.61126
344.20000	3.94587
344.30000	3.27271
344.40000	2.59305
344.50000	1.90817
344.60000	1.21935
344.70000	0.52788
344.80000	-0.16494
344.90000	-0.85781
345.00000	-1.54941
345.10000	-2.23845
345.20000	-2.92361
345.30000	-3.60360
345.40000	-4.27711
345.50000	-4.94285
345.60000	-5.59953
345.70000	-6.24587
345.80000	-6.88060
345.90000	-7.50247
346.00000	-8.11024
346.10000	-8.70270
346.20000	-9.27863
346.30000	-9.83688
346.40000	-10.37628
346.50000	-10.89573
346.60000	-11.39412
346.70000	-11.87042
346.80000	-12.32361
346.90000	-12.75272
347.00000	-13.15682
347.10000	-13.53504
347.20000	-13.88654
347.30000	-14.21056
347.40000	-14.50637
347.50000	-14.77333
347.60000	-15.01084
347.70000	-15.21836
347.80000	-15.39543
347.90000	-15.54166
348.00000	-15.65673
348.10000	-15.74037
348.20000	-15.79241
348.30000	-15.81274
348.40000	-15.80131
348.50000	-15.75817
348.60000	-15.68342
348.70000	-15.57725
348.80000	-15.43989
348.90000	-15.27166
349.00000	-15.07296
349.10000	-14.84423
349.20000	-14.58599
349.30000	-14.29881
349.40000	-13.98331
349.50000	-13.64020
349.60000	-13.27022
349.70000	-12.87414
349.80000	-12.45282
349.90000	-12.00714
350.00000	-11.53802
350.10000	-11.04643
350.20000	-10.53338
350.30000	-9.99989
350.40000	-9.44704
350.50000	-8.87592
350.60000	-8.28766
350.70000	-7.68340
350.80000	-7.06432
350.90000	-6.43161
351.00000	-5.78647
351.10000	-5.13013
351.20000	-4.46384
351.30000	-3.78885
351.40000	-3.10643
351.50000	-2.41786
351.60000	-1.72442
351.70000	-1.02741
351.80000	-0.32813
351.90000	0.37211
352.00000	1.07200
352.10000	1.77023
352.20000	2.46549
352.30000	3.15645
352.40000	3.84182
352.50000	4.52027
352.60000	5.19052
352.70000	5.85127
352.80000	6.50123
352.90000	7.13913
353.00000	7.76371
353.10000	8.37372
353.20000	8.96795
353.30000	9.54519
353.40000	10.10426
353.50000	10.64400
353.60000	11.16330
353.70000	11.66107
353.80000	12.13625
353.90000	12.58782
354.00000	13.01481
354.10000	13.41630
354.20000	13.79141
354.30000	14.13932
354.40000	14.45924
354.50000	14.75047
354.60000	15.01236
354.70000	15.24431
354.80000	15.44580
354.90000	15.61638
355.00000	15.75566
355.10000	15.86332
355.20000	15.93912
355.30000	15.98288
355.40000	15.99452
355.50000	15.97401
355.60000	15.92140
355.70000	15.83682
355.80000	15.72045
355.90000	15.57257
356.00000	15.39352
356.10000	15.18370
356.20000	14.94357
356.30000	14.67368
356.40000	14.37462
356.50000	14.04705
356.60000	13.69168
356.70000	13.30927
356.80000	12.90063
356.90000	12.46664
357.00000	12.00819
357.10000	11.52624
357.20000	11.02178
357.30000	10.49584
357.40000	9.94947
357.50000	9.38377
357.60000	8.79986
357.70000	8.19888
357.80000	7.58201
357.90000	6.95045
358.00000	6.30541
358.10000	5.64813
358.20000	4.97985
358.30000	4.30184
358.40000	3.61538
358.50000	2.92177
358.60000	2.22231
358.70000	1.51831
358.80000	0.81109
358.90000	0.10198
359.00000	-0.60770
359.10000	-1.31661
359.20000	-2.02341
359.30000	-2.72677
359.40000	-3.42534
359.50000	-4.11780
359.60000	-4.80282
359.70000	-5.47907
359.80000	-6.14524
359.90000	-6.80003
360.00000	-7.44214
360.10000	-8.07031
360.20000	-8.68326
360.30000	-9.27976
360.40000	-9.85860
360.50000	-10.41858
360.60000	-10.95855
360.70000	-11.47737
360.80000	-11.97394
360.90000	-12.44722
361.00000	-12.89618
361.10000	-13.31985
361.20000	-13.71731
361.30000	-14.08769
361.40000	-14.43017
361.50000	-14.74399
361.60000	-15.02845
361.70000	-15.28292
361.80000	-15.50682
361.90000	-15.69965
362.00000	-15.86098
362.10000	-15.99044
362.20000	-16.08776
362.30000	-16.15270
362.40000	-16.18514
362.50000	-16.18501
362.60000	-16.15233
362.70000	-16.08716
362.80000	-15.98969
362.90000	-15.86013
363.00000	-15.69880
363.10000	-15.50606
363.20000	-15.28236
363.30000	-15.02821
363.40000	-14.74418
363.50000	-14.43090
363.60000	-14.08906
363.70000	-13.71941
363.80000	-13.32274
363.90000	-12.89990
364.00000	-12.45180
364.10000	-11.97935
364.20000	-11.48356
364.30000	-10.96542
364.40000	-10.42600
364.50000	-9.86639
364.60000	-9.28768
364.70000	-8.69104
364.80000	-8.07762
364.90000	-7.44863
365.00000	-6.80526
365.10000	-6.14877
365.20000	-5.48039
365.30000	-4.80139
365.40000	-4.11305
365.50000	-3.41667
365.60000	-2.71355
365.70000	-2.00500
365.80000	-1.29235
365.90000	-0.57693
366.00000	0.13994
366.10000	0.85691
366.20000	1.57264
366.30000	2.28578
366.40000	2.99499
366.50000	3.69893
366.60000	4.39625
366.70000	5.08563
366.80000	5.76574
366.90000	6.43525
367.00000	7.09286
367.10000	7.73726
367.20000	8.36719
367.30000	8.98137
367.40000	9.57857
367.50000	10.15756
367.60000	10.71715
367.70000	11.25617
367.80000	11.77350
367.90000	12.26803
368.00000	12.73871
368.10000	13.18453
368.20000	13.60450
368.30000	13.99772
368.40000	14.36332
368.50000	14.70047
368.60000	15.00842
368.70000	15.28649
368.80000	15.53404
368.90000	15.75051
369.00000	15.93540
369.10000	16.08831
369.20000	16.20886
369.30000	16.29681
369.40000	16.35193
369.50000	16.37412
369.60000	16.36332
369.70000	16.31957
369.80000	16.24296
369.90000	16.13369
370.00000	15.99200
370.10000	15.81823
370.20000	15.61276
370.30000	15.37607
370.40000	15.10869
370.50000	14.81121
370.60000	14.48430
370.70000	14.12867
370.80000	13.74508
370.90000	13.33438
371.00000	12.89742
371.10000	12.43513
371.20000	11.94848
371.30000	11.43847
371.40000	10.90614
371.50000	10.35258
371.60000	9.77889
371.70000	9.18622
371.80000	8.57574
371.90000	7.94864
372.00000	7.30613
372.10000	6.64947
372.20000	5.97990
372.30000	5.29871
372.40000	4.60718
372.50000	3.90662
372.60000	3.19836
372.70000	2.48371
372.80000	1.76402
372.90000	1.04064
373.00000	0.31492
373.10000	-0.41178
373.20000	-1.13809
373.30000	-1.86265
373.40000	-2.58409
373.50000	-3.30104
373.60000	-4.01214
373.70000	-4.71602
373.80000	-5.41133
373.90000	-6.09672
374.00000	-6.77084
374.10000	-7.43238
374.20000	-8.08001
374.30000	-8.71245
374.40000	-9.32840
374.50000	-9.92662
374.60000	-10.50588
374.70000	-11.06497
374.80000	-11.60272
374.90000	-12.11800
375.00000	-12.60970
375.10000	-13.07676
375.20000	-13.51819
375.30000	-13.93300
375.40000	-14.32028
375.50000	-14.67918
375.60000	-15.00891
375.70000	-15.30870
375.80000	-15.57791
375.90000	-15.81591
376.00000	-16.02217
376.10000	-16.19622
376.20000	-16.33767
376.30000	-16.44621
376.40000	-16.52159
376.50000	-16.56365
376.60000	-16.57230
376.70000	-16.54754
376.80000	-16.48943
376.90000	-16.39812
377.00000	-16.27383
377.10000	-16.11686
377.20000	-15.92758
377.30000	-15.70643
377.40000	-15.45391
377.50000	-15.17060
377.60000	-14.85714
377.70000	-14.51422
377.80000	-14.14260
377.90000	-13.74308
378.00000	-13.31653
378.10000	-12.86386
378.20000	-12.38603
378.30000	-11.88402
378.40000	-11.35888
378.50000	-10.81167
378.60000	-10.24351
378.70000	-9.65553
378.80000	-9.04889
378.90000	-8.42480
379.00000	-7.78446
379.10000	-7.12911
379.20000	-6.46002
379.30000	-5.77845
379.40000	-5.08570
379.50000	-4.38307
379.60000	-3.67189
379.70000	-2.95348
379.80000	-2.22920
379.90000	-1.50038
380.00000	-0.76838
380.10000	-0.03457
380.20000	0.69968
380.30000	1.43300
380.40000	2.16401
380.50000	2.89135
380.60000	3.61363
380.70000	4.32948
380.80000	5.03754
380.90000	5.73645
381.00000	6.42484
381.10000	7.10138
381.20000	7.76473
381.30000	8.41358
381.40000	9.04662
381.50000	9.66257
381.60000	10.26018
381.70000	10.83821
381.80000	11.39546
381.90000	11.93075
382.00000	12.44295
382.10000	12.93096
382.20000	13.39372
382.30000	13.83023
382.40000	14.23952
382.50000	14.62068
382.60000	14.97287
382.70000	15.29528
382.80000	15.58720
382.90000	15.84795
383.00000	16.07695
383.10000	16.27366
383.20000	16.43764
383.30000	16.56851
383.40000	16.66596
383.50000	16.72979
383.60000	16.75984
383.70000	16.75606
383.80000	16.71845
383.90000	16.64711
384.00000	16.54221
384.10000	16.40400
384.20000	16.23280
384.30000	16.02901
384.40000	15.79309
384.50000	15.52559
384.60000	15.22710
384.70000	14.89829
384.80000	14.53989
384.90000	14.15268
385.00000	13.73750
385.10000	13.29524
385.20000	12.82684
385.30000	12.33329
385.40000	11.81560
385.50000	11.27484
385.60000	10.71212
385.70000	10.12856
385.80000	9.52534
385.90000	8.90365
386.00000	8.26471
386.10000	7.60976
386.20000	6.94006
386.30000	6.25691
386.40000	5.56160
386.50000	4.85546
386.60000	4.13981
386.70000	3.41601
386.80000	2.68541
386.90000	1.94938
387.00000	1.20929
387.10000	0.46654
387.20000	-0.27749
387.30000	-1.02141
387.40000	-1.76381
387.50000	-2.50330
387.60000	-3.23848
387.70000	-3.96794
387.80000	-4.69030
387.90000	-5.40416
388.00000	-6.10815
388.10000	-6.80087
388.20000	-7.48098
388.30000	-8.14711
388.40000	-8.79794
388.50000	-9.43216
388.60000	-10.04845
388.70000	-10.64557
388.80000	-11.22226
388.90000	-11.77731
389.00000	-12.30955
389.10000	-12.81784
389.20000	-13.30108
389.30000	-13.75822
389.40000	-14.18826
389.50000	-14.59024
389.60000	-14.96328
389.70000	-15.30652
389.80000	-15.61921
389.90000	-15.90063
390.00000	-16.15015
390.10000	-16.36720
390.20000	-16.55128
390.30000	-16.70197
390.40000	-16.81895
390.50000	-16.90193
390.60000	-16.95076
390.70000	-16.96531
390.80000	-16.94558
390.90000	-16.89162
391.00000	-16.80357
391.10000	-16.68165
391.20000	-16.52615
391.30000	-16.33744
391.40000	-16.11598
391.50000	-15.86226
391.60000	-15.57688
391.70000	-15.26048
391.80000	-14.91377
391.90000	-14.53752
392.00000	-14.13256
392.10000	-13.69977
392.20000	-13.24007
392.30000	-12.75445
392.40000	-12.24391
392.50000	-11.70952
392.60000	-11.15238
392.70000	-10.57361
392.80000	-9.97439
392.90000	-9.35589
393.00000	-8.71935
393.10000	-8.06599
393.20000	-7.39710
393.30000	-6.71394
393.40000	-6.01783
393.50000	-5.31009
393.60000	-4.59205
393.70000	-3.86506
393.80000	-3.13047
393.90000	-2.38967
394.00000	-1.64402
394.10000	-0.89492
394.20000	-0.14375
394.30000	0.60807
394.40000	1.35916
394.50000	2.10810
394.60000	2.85348
394.70000	3.59390
394.80000	4.32796
394.90000	5.05426
395.00000	5.77139
395.10000	6.47797
395.20000	7.17262
395.30000	7.85397
395.40000	8.52068
395.50000	9.17139
395.60000	9.80480
395.70000	10.41960
395.80000	11.01453
395.90000	11.58835
396.00000	12.13984
396.10000	12.66783
396.20000	13.17119
396.30000	13.64881
396.40000	14.09966
396.50000	14.52274
396.60000	14.91709
396.70000	15.28185
396.80000	15.61618
396.90000	15.91932
397.00000	16.19057
397.10000	16.42932
397.20000	16.63501
397.30000	16.80718
397.40000	16.94541
397.50000	17.04940
397.60000	17.11890
397.70000	17.15377
397.80000	17.15392
397.90000	17.11936
398.00000	17.05018
398.10000	16.94655
398.20000	16.80872
398.30000	16.63701
398.40000	16.43183
398.50000	16.19365
398.60000	15.92301
398.70000	15.62054
398.80000	15.28692
398.90000	14.92288
399.00000	14.52923
399.10000	14.10683
399.20000	13.65659
399.30000	13.17947
399.40000	12.67649
399.50000	12.14868
399.60000	11.59714
399.70000	11.02300
399.80000	10.42742
399.90000	9.81159
400.00000	9.17673
400.10000	8.52410
400.20000	7.85496
400.30000	7.17061
400.40000	6.47236
400.50000	5.76154
400.60000	5.03950
400.70000	4.30762
400.80000	3.56725
400.90000	2.81979
401.00000	2.06664
401.10000	1.30920
401.20000	0.54889
401.30000	-0.21287
401.40000	-0.97465
401.50000	-1.73503
401.60000	-2.49257
401.70000	-3.24584
401.80000	-3.99341
401.90000	-4.73386
402.00000	-5.46574
402.10000	-6.18766
402.20000	-6.89819
402.30000	-7.59594
402.40000	-8.27953
402.50000	-8.94757
402.60000	-9.59873
402.70000	-10.23167
402.80000	-10.84507
402.90000	-11.43767
403.00000	-12.00822
403.10000	-12.55549
403.20000	-13.07833
403.30000	-13.57558
403.40000	-14.04617
403.50000	-14.48906
403.60000	-14.90326
403.70000	-15.28785
403.80000	-15.64196
403.90000	-15.96478
404.00000	-16.25558
404.10000	-16.51370
404.20000	-16.73854
404.30000	-16.92960
404.40000	-17.08643
404.50000	-17.20868
404.60000	-17.29607
404.70000	-17.34842
404.80000	-17.36561
404.90000	-17.34762
405.00000	-17.29450
405.10000	-17.20640
405.20000	-17.08354
405.30000	-16.92621
405.40000	-16.73481
405.50000	-16.50977
405.60000	-16.25164
405.70000	-15.96100
405.80000	-15.63853
405.90000	-15.28495
406.00000	-14.90106
406.10000	-14.48770
406.20000	-14.04577
406.30000	-13.57624
406.40000	-13.08011
406.50000	-12.55841
406.60000	-12.01223
406.70000	-11.44271
406.80000	-10.85100
406.90000	-10.23830
407.00000	-9.60581
407.10000	-8.95480
407.20000	-8.28654
407.30000	-7.60231
407.40000	-6.90344
407.50000	-6.19126
407.60000	-5.46712
407.70000	-4.73238
407.80000	-3.98842
407.90000	-3.23663
408.00000	-2.47842
408.10000	-1.71518
408.20000	-0.94835
408.30000	-0.17934
408.40000	0.59041
408.50000	1.35947
408.60000	2.12641
408.70000	2.88978
408.80000	3.64814
408.90000	4.40006
409.00000	5.14411
409.10000	5.87885
409.20000	6.60286
409.30000	7.31473
409.40000	8.01305
409.50000	8.69643
409.60000	9.36351
409.70000	10.01292
409.80000	10.64335
409.90000	11.25347
410.00000	11.84201
410.10000	12.40773
410.20000	12.94942
410.30000	13.46590
410.40000	13.95605
410.50000	14.41878
410.60000	14.85308
410.70000	15.25796
410.80000	15.63251
410.90000	15.97587
411.00000	16.28726
411.10000	16.56597
411.20000	16.81134
411.30000	17.02282
411.40000	17.19989
411.50000	17.34217
411.60000	17.44931
411.70000	17.52107
411.80000	17.55729
411.90000	17.55789
412.00000	17.52288
412.10000	17.45235
412.20000	17.34648
412.30000	17.20552
412.40000	17.02980
412.50000	16.81975
412.60000	16.57586
412.70000	16.29870
412.80000	15.98889
412.90000	15.64714
413.00000	15.27422
413.10000	14.87096
413.20000	14.43824
413.30000	13.97699
413.40000	13.48822
413.50000	12.97296
413.60000	12.43229
413.70000	11.86732
413.80000	11.27922
413.90000	10.66919
414.00000	10.03843
414.10000	9.38821
414.20000	8.71981
414.30000	8.03453
414.40000	7.33369
414.50000	6.61865
414.60000	5.89076
414.70000	5.15140
414.80000	4.40198
414.90000	3.64389
415.00000	2.87855
415.10000	2.10740
415.20000	1.33188
415.30000	0.55342
415.40000	-0.22651
415.50000	-1.00646
415.60000	-1.78497
415.70000	-2.56057
415.80000	-3.33180
415.90000	-4.09719
416.00000	-4.85528
416.10000	-5.60460
416.20000	-6.34372
416.30000	-7.07118
416.40000	-7.78555
416.50000	-8.48540
416.60000	-9.16934
416.70000	-9.83597
416.80000	-10.48393
416.90000	-11.11187
417.00000	-11.71848
417.10000	-12.30248
417.20000	-12.86262
417.30000	-13.39769
417.40000	-13.90653
417.50000	-14.38801
417.60000	-14.84107
417.70000	-15.26470
417.80000	-15.65793
417.90000	-16.01987
418.00000	-16.34971
418.10000	-16.64668
418.20000	-16.91011
418.30000	-17.13937
418.40000	-17.33395
418.50000	-17.49340
418.60000	-17.61736
418.70000	-17.70554
418.80000	-17.75775
418.90000	-17.77388
419.00000	-17.75391
419.10000	-17.69792
419.20000	-17.60603
419.30000	-17.47850
419.40000	-17.31564
419.50000	-17.11784
419.60000	-16.88557
419.70000	-16.61940
419.80000	-16.31993
419.90000	-15.98787
420.00000	-15.62396
420.10000	-15.22904
420.20000	-14.80397
420.30000	-14.34969
420.40000	-13.86719
420.50000	-13.35750
420.60000	-12.82171
420.70000	-12.26092
420.80000	-11.67629
420.90000	-11.06903
421.00000	-10.44036
421.10000	-9.79152
421.20000	-9.12381
421.30000	-8.43853
421.40000	-7.73700
421.50000	-7.02057
421.60000	-6.29061
421.70000	-5.54851
421.80000	-4.79565
421.90000	-4.03345
422.00000	-3.26333
422.10000	-2.48673
422.20000	-1.70508
422.30000	-0.91984
422.40000	-0.13245
422.50000	0.65560
422.60000	1.44287
422.70000	2.22787
422.80000	3.00915
422.90000	3.78521
423.00000	4.55460
423.10000	5.31585
423.20000	6.06749
423.30000	6.80806
423.40000	7.53612
423.50000	8.25023
423.60000	8.94896
423.70000	9.63092
423.80000	10.29470
423.90000	10.93895
424.00000	11.56232
424.10000	12.16350
424.20000	12.74121
424.30000	13.29422
424.40000	13.82131
424.50000	14.32133
424.60000	14.79317
424.70000	15.23578
424.80000	15.64815
424.90000	16.02935
425.00000	16.37850
425.10000	16.69479
425.20000	16.97750
425.30000	17.22596
425.40000	17.43958
425.50000	17.61788
425.60000	17.76044
425.70000	17.86692
425.80000	17.93708
425.90000	17.97075
426.00000	17.96788
426.10000	17.92848
426.20000	17.85264
426.30000	17.74057
426.40000	17.59254
426.50000	17.40890
426.60000	17.19009
426.70000	16.93664
426.80000	16.64913
426.90000	16.32824
427.00000	15.97468
427.10000	15.58926
427.20000	15.17285
427.30000	14.72635
427.40000	14.25075
427.50000	13.74707
427.60000	13.21639
427.70000	12.65980
427.80000	12.07848
427.90000	11.47362
428.00000	10.84645
428.10000	10.19821
428.20000	9.53022
428.30000	8.84377
428.40000	8.14020
428.50000	7.42089
428.60000	6.68719
428.70000	5.94052
428.80000	5.18229
428.90000	4.41392
429.00000	3.63686
429.10000	2.85256
429.20000	2.06247
429.30000	1.26808
429.40000	0.47086
429.50000	-0.32770
429.60000	-1.12611
429.70000	-1.92288
429.80000	-2.71650
429.90000	-3.50549
430.00000	-4.28833
430.10000	-5.06353
430.20000	-5.82960
430.30000	-6.58505
430.40000	-7.32841
430.50000	-8.05820
430.60000	-8.77296
430.70000	-9.47126
430.80000	-10.15168
430.90000	-10.81280
431.00000	-11.45327
431.10000	-12.07173
431.20000	-12.66686
431.30000	-13.23739
431.40000	-13.78207
431.50000	-14.29972
431.60000	-14.78918
431.70000	-15.24936
431.80000	-15.67923
431.90000	-16.07780
432.00000	-16.44417
432.10000	-16.77750
432.20000	-17.07700
432.30000	-17.34200
432.40000	-17.57186
432.50000	-17.76607
432.60000	-17.92417
432.70000	-18.04580
432.80000	-18.13068
432.90000	-18.17863
433.00000	-18.18956
433.10000	-18.16344
433.20000	-18.10038
433.30000	-18.00053
433.40000	-17.86416
433.50000	-17.69160
433.60000	-17.48328
433.70000	-17.23970
433.80000	-16.96145
433.90000	-16.64917
434.00000	-16.30361
434.10000	-15.92554
434.20000	-15.51583
434.30000	-15.07540
434.40000	-14.60520
434.50000	-14.10627
434.60000	-13.57969
434.70000	-13.02656
434.80000	-12.44804
434.90000	-11.84534
435.00000	-11.21968
435.10000	-10.57233
435.20000	-9.90457
435.30000	-9.21773
435.40000	-8.51314
435.50000	-7.79217
435.60000	-7.05621
435.70000	-6.30666
435.80000	-5.54492
435.90000	-4.77244
436.00000	-3.99065
436.10000	-3.20102
436.20000	-2.40501
436.30000	-1.60409
436.40000	-0.79975
436.50000	0.00653
436.60000	0.81323
436.70000	1.61888
436.80000	2.42196
436.90000	3.22096
437.00000	4.01439
437.10000	4.80073
437.20000	5.57849
437.30000	6.34616
437.40000	7.10226
437.50000	7.84530
437.60000	8.57382
437.70000	9.28634
437.80000	9.98145
437.90000	10.65770
438.00000	11.31370
438.10000	11.94808
438.20000	12.55950
438.30000	13.14665
438.40000	13.70825
438.50000	14.24308
438.60000	14.74995
438.70000	15.22773
438.80000	15.67534
438.90000	16.09176
439.00000	16.47604
439.10000	16.82728
439.20000	17.14467
439.30000	17.42746
439.40000	17.67500
439.50000	17.88669
439.60000	18.06204
439.70000	18.20064
439.80000	18.30216
439.90000	18.36637
440.00000	18.39313
440.10000	18.38237
440.20000	18.33415
440.30000	18.24859
440.40000	18.12591
440.50000	17.96641
440.60000	17.77048
440.70000	17.53859
440.80000	17.27129
440.90000	16.96922
441.00000	16.63308
441.10000	16.26364
441.20000	15.86174
441.30000	15.42829
441.40000	14.96423
441.50000	14.47059
441.60000	13.94843
441.70000	13.39888
441.80000	12.82307
441.90000	12.22222
442.00000	11.59755
442.10000	10.95034
442.20000	10.28188
442.30000	9.59351
442.40000	8.88656
442.50000	8.16243
442.60000	7.42250
442.70000	6.66820
442.80000	5.90096
442.90000	5.12222
443.00000	4.33345
443.10000	3.53613
443.20000	2.73175
443.30000	1.92179
443.40000	1.10777
443.50000	0.29121
443.60000	-0.52639
443.70000	-1.34348
443.80000	-2.15855
443.90000	-2.97006
444.00000	-3.77647
444.10000	-4.57625
444.20000	-5.36788
444.30000	-6.14981
444.40000	-6.92054
444.50000	-7.67854
444.60000	-8.42232
444.70000	-9.15038
444.80000	-9.86125
444.90000	-10.55347
445.00000	-11.22561
445.10000	-11.87626
445.20000	-12.50405
445.30000	-13.10763
445.40000	-13.68569
445.50000	-14.23697
445.60000	-14.76025
445.70000	-15.25436
445.80000	-15.71819
445.90000	-16.15067
446.00000	-16.55082
446.10000	-16.91772
446.20000	-17.25052
446.30000	-17.54843
446.40000	-17.81077
446.50000	-18.03692
446.60000	-18.22635
446.70000	-18.37863
446.80000	-18.49339
446.90000	-18.57039
447.00000	-18.60946
447.10000	-18.61052
447.20000	-18.57359
447.30000	-18.49879
447.40000	-18.38631
447.50000	-18.23644
447.60000	-18.04958
447.70000	-17.82616
447.80000	-17.56675
447.90000	-17.27197
448.00000	-16.94251
448.10000	-16.57915
448.20000	-16.18271
448.30000	-15.75411
448.40000	-15.29431
448.50000	-14.80431
448.60000	-14.28520
448.70000	-13.73809
448.80000	-13.16414
448.90000	-12.56455
449.00000	-11.94056
449.10000	-11.29345
449.20000	-10.62451
449.30000	-9.93509
449.40000	-9.22654
449.50000	-8.50025
449.60000	-7.75761
449.70000	-7.00004
449.80000	-6.22899
449.90000	-5.44590
450.00000	-4.65225
450.10000	-3.84952
450.20000	-3.03919
450.30000	-2.22277
450.40000	-1.40177
450.50000	-0.57770
450.60000	0.24790
450.70000	1.07352
450.80000	1.89760
450.90000	2.71863
451.00000	3.53505
451.10000	4.34532
451.20000	5.14791
451.30000	5.94129
451.40000	6.72391
451.50000	7.49425
451.60000	8.25080
451.70000	8.99205
451.80000	9.71652
451.90000	10.42272
452.00000	11.10920
452.10000	11.77453
452.20000	12.41732
452.30000	13.03619
452.40000	13.62980
452.50000	14.19686
452.60000	14.73611
452.70000	15.24635
452.80000	15.72643
452.90000	16.17525
453.00000	16.59179
453.10000	16.97507
453.20000	17.32420
453.30000	17.63836
453.40000	17.91681
453.50000	18.15889
453.60000	18.36402
453.70000	18.53172
453.80000	18.66158
453.90000	18.75332
454.00000	18.80671
454.10000	18.82165
454.20000	18.79810
454.30000	18.73614
454.40000	18.63593
454.50000	18.49773
454.60000	18.32189
454.70000	18.10884
454.80000	17.85909
454.90000	17.57325
455.00000	17.25199
455.10000	16.89606
455.20000	16.50629
455.30000	16.08357
455.40000	15.62883
455.50000	15.14311
455.60000	14.62745
455.70000	14.08298
455.80000	13.51085
455.90000	12.91228
456.00000	12.28850
456.10000	11.64079
456.20000	10.97047
456.30000	10.27888
456.40000	9.56739
456.50000	8.83740
456.60000	8.09032
456.70000	7.32759
456.80000	6.55066
456.90000	5.76101
457.00000	4.96012
457.10000	4.14951
457.20000	3.33066
457.30000	2.50513
457.40000	1.67443
457.50000	0.84010
457.60000	0.00371
457.70000	-0.83319
457.80000	-1.66905
457.90000	-2.50230
458.00000	-3.33137
458.10000	-4.15468
458.20000	-4.97068
458.30000	-5.77779
458.40000	-6.57446
458.50000	-7.35911
458.60000	-8.13022
458.70000	-8.88624
458.80000	-9.62564
458.90000	-10.34692
459.00000	-11.04859
459.10000	-11.72919
459.20000	-12.38728
459.30000	-13.02146
459.40000	-13.63036
459.50000	-14.21264
459.60000	-14.76702
459.70000	-15.29226
459.80000	-15.78717
459.90000	-16.25064
460.00000	-16.68158
460.10000	-17.07902
460.20000	-17.44201
460.30000	-17.76971
460.40000	-18.06135
460.50000	-18.31625
460.60000	-18.53379
460.70000	-18.71348
460.80000	-18.85489
460.90000	-18.95770
461.00000	-19.02168
461.10000	-19.04669
461.20000	-19.03269
461.30000	-18.97975
461.40000	-18.88803
461.50000	-18.75775
461.60000	-18.58927
461.70000	-18.38301
461.80000	-18.13949
461.90000	-17.85929
462.00000	-17.54311
462.10000	-17.19168
462.20000	-16.80585
462.30000	-16.38649
462.40000	-15.93456
462.50000	-15.45108
462.60000	-14.93712
462.70000	-14.39380
462.80000	-13.82229
462.90000	-13.22381
463.00000	-12.59959
463.10000	-11.95094
463.20000	-11.27917
463.30000	-10.58563
463.40000	-9.87169
463.50000	-9.13877
463.60000	-8.38829
463.70000	-7.62168
463.80000	-6.84041
463.90000	-6.04596
464.00000	-5.23982
464.10000	-4.42349
464.20000	-3.59850
464.30000	-2.76637
464.40000	-1.92864
464.50000	-1.08685
464.60000	-0.24257
464.70000	0.60265
464.80000	1.44725
464.90000	2.28965
465.00000	3.12827
465.10000	3.96156
465.20000	4.78792
465.30000	5.60578
465.40000	6.41358
465.50000	7.20975
465.60000	7.99272
465.70000	8.76095
465.80000	9.51290
465.90000	10.24704
466.00000	10.96188
466.10000	11.65593
466.20000	12.32772
466.30000	12.97584
466.40000	13.59888
466.50000	14.19548
466.60000	14.76434
466.70000	15.30417
466.80000	15.81376
466.90000	16.29195
467.00000	16.73763
467.10000	17.14977
467.20000	17.52740
467.30000	17.86962
467.40000	18.17564
467.50000	18.44472
467.60000	18.67620
467.70000	18.86955
467.80000	19.02430
467.90000	19.14009
468.00000	19.21663
468.10000	19.25377
468.20000	19.25142
468.30000	19.20960
468.40000	19.12844
468.50000	19.00815
468.60000	18.84904
468.70000	18.65151
468.80000	18.41604
468.90000	18.14323
469.00000	17.83371
469.10000	17.48823
469.20000	17.10759
469.30000	16.69269
469.40000	16.24447
469.50000	15.76393
469.60000	15.25215
469.70000	14.71024
469.80000	14.13938
469.90000	13.54078
470.00000	12.91570
470.10000	12.26544
470.20000	11.59132
470.30000	10.89471
470.40000	10.17699
470.50000	9.43959
470.60000	8.68395
470.70000	7.91151
470.80000	7.12377
470.90000	6.32223
471.00000	5.50838
471.10000	4.68377
471.20000	3.84993
471.30000	3.00842
471.40000	2.16079
471.50000	1.30862
471.60000	0.45348
471.70000	-0.40303
471.80000	-1.25932
471.90000	-2.11379
472.00000	-2.96484
472.10000	-3.81087
472.20000	-4.65027
472.30000	-5.48144
472.40000	-6.30277
472.50000	-7.11267
472.60000	-7.90954
472.70000	-8.69181
472.80000	-9.45789
472.90000	-10.20624
473.00000	-10.93532
473.10000	-11.64361
473.20000	-12.32962
473.30000	-12.99189
473.40000	-13.62899
473.50000	-14.23952
473.60000	-14.82214
473.70000	-15.37555
473.80000	-15.89849
473.90000	-16.38977
474.00000	-16.84826
474.10000	-17.27289
474.20000	-17.66267
474.30000	-18.01668
474.40000	-18.33409
474.50000	-18.61414
474.60000	-18.85617
474.70000	-19.05959
474.80000	-19.22395
474.90000	-19.34884
475.00000	-19.43398
475.10000	-19.47920
475.20000	-19.48440
475.30000	-19.44960
475.40000	-19.37490
475.50000	-19.26053
475.60000	-19.10678
475.70000	-18.91407
475.80000	-18.68286
475.90000	-18.41376
476.00000	-18.10741
476.10000	-17.76456
476.20000	-17.38603
476.30000	-16.97271
476.40000	-16.52554
476.50000	-16.04556
476.60000	-15.53384
476.70000	-14.99151
476.80000	-14.41975
476.90000	-13.81979
477.00000	-13.19290
477.10000	-12.54038
477.20000	-11.86357
477.30000	-11.16384
477.40000	-10.44260
477.50000	-9.70127
477.60000	-8.94130
477.70000	-8.16416
477.80000	-7.37133
477.90000	-6.56431
478.00000	-5.74464
478.10000	-4.91383
478.20000	-4.07344
478.30000	-3.22503
478.40000	-2.37015
478.50000	-1.51039
478.60000	-0.64733
478.70000	0.21743
478.80000	1.08231
478.90000	1.94570
479.00000	2.80598
479.10000	3.66156
479.20000	4.51082
479.30000	5.35215
479.40000	6.18393
479.50000	7.00457
479.60000	7.81245
479.70000	8.60600
479.80000	9.38362
479.90000	10.14374
480.00000	10.88482
480.10000	11.60531
480.20000	12.30371
480.30000	12.97853
480.40000	13.62832
480.50000	14.25166
480.60000	14.84719
480.70000	15.41355
480.80000	15.94949
480.90000	16.45376
481.00000	16.92520
481.10000	17.36272
481.20000	17.76528
481.30000	18.13193
481.40000	18.46179
481.50000	18.75407
481.60000	19.00807
481.70000	19.22317
481.80000	19.39886
481.90000	19.53471
482.00000	19.63041
482.10000	19.68574
482.20000	19.70057
482.30000	19.67488
482.40000	19.60876
482.50000	19.50239
482.60000	19.35606
482.70000	19.17013
482.80000	18.94508
482.90000	18.68146
483.00000	18.37993
483.10000	18.04122
483.20000	17.66612
483.30000	17.25552
483.40000	16.81038
483.50000	16.33171
483.60000	15.82058
483.70000	15.27813
483.80000	14.70554
483.90000	14.10406
484.00000	13.47494
484.10000	12.81951
484.20000	12.13913
484.30000	11.43517
484.40000	10.70905
484.50000	9.96220
484.60000	9.19611
484.70000	8.41225
484.80000	7.61213
484.90000	6.79727
485.00000	5.96922
485.10000	5.12953
485.20000	4.27977
485.30000	3.42152
485.40000	2.55638
485.50000	1.68595
485.60000	0.81183
485.70000	-0.06435
485.80000	-0.94097
485.90000	-1.81640
486.00000	-2.68900
486.10000	-3.55712
486.20000	-4.41914
486.30000	-5.27340
486.40000	-6.11826
486.50000	-6.95209
486.60000	-7.77326
486.70000	-8.58013
486.80000	-9.37109
486.90000	-10.14454
487.00000	-10.89889
487.10000	-11.63257
487.20000	-12.34405
487.30000	-13.03181
487.40000	-13.69435
487.50000	-14.33024
487.60000	-14.93807
487.70000	-15.51647
487.80000	-16.06413
487.90000	-16.57981
488.00000	-17.06230
488.10000	-17.51048
488.20000	-17.92330
488.30000	-18.29978
488.40000	-18.63902
488.50000	-18.94022
488.60000	-19.20264
488.70000	-19.42566
488.80000	-19.60876
488.90000	-19.75150
489.00000	-19.85354
489.10000	-19.91467
489.20000	-19.93476
489.30000	-19.91378
489.40000	-19.85182
489.50000	-19.74907
489.60000	-19.60580
489.70000	-19.42240
489.80000	-19.19934
489.90000	-18.93720
490.00000	-18.63663
490.10000	-18.29837
490.20000	-17.92324
490.30000	-17.51213
490.40000	-17.06601
490.50000	-16.58591
490.60000	-16.07292
490.70000	-15.52819
490.80000	-14.95291
490.90000	-14.34835
491.00000	-13.71577
491.10000	-13.05652
491.20000	-12.37196
491.30000	-11.66348
491.40000	-10.93252
491.50000	-10.18052
491.60000	-9.40897
491.70000	-8.61935
491.80000	-7.81318
491.90000	-6.99200
492.00000	-6.15736
492.10000	-5.31081
492.20000	-4.45394
492.30000	-3.58833
492.40000	-2.71557
492.50000	-1.83728
492.60000	-0.95507
492.70000	-0.07056
492.80000	0.81461
492.90000	1.69882
493.00000	2.58041
493.10000	3.45776
493.20000	4.32920
493.30000	5.19308
493.40000	6.04778
493.50000	6.89162
493.60000	7.72298
493.70000	8.54022
493.80000	9.34171
493.90000	10.12584
494.00000	10.89101
494.10000	11.63562
494.20000	12.35814
494.30000	13.05701
494.40000	13.73073
494.50000	14.37784
494.60000	14.99690
494.70000	15.58653
494.80000	16.14538
494.90000	16.67218
495.00000	17.16570
495.10000	17.62479
495.20000	18.04836
495.30000	18.43539
495.40000	18.78495
495.50000	19.09621
495.60000	19.36841
495.70000	19.60088
495.80000	19.79306
495.90000	19.94449
496.00000	20.05480
496.10000	20.12374
496.20000	20.15115
496.30000	20.13698
496.40000	20.08130
496.50000	19.98426
496.60000	19.84613
496.70000	19.66726
496.80000	19.44813
496.90000	19.18928
497.00000	18.89135
497.10000	18.55509
497.20000	18.18131
497.30000	17.77088
497.40000	17.32479
497.50000	16.84405
497.60000	16.32977
497.70000	15.78309
497.80000	15.20522
497.90000	14.59742
498.00000	13.96099
498.10000	13.29726
498.20000	12.60763
498.30000	11.89349
498.40000	11.15630
498.50000	10.39752
498.60000	9.61865
498.70000	8.82120
498.80000	8.00671
498.90000	7.17674
499.00000	6.33285
499.10000	5.47665
499.20000	4.60971
499.30000	3.73366
499.40000	2.85012
499.50000	1.96073
499.60000	1.06712
499.70000	0.17095
499.80000	-0.72612
499.90000	-1.62243
500.00000	-2.51630
